,time,x,y,z,vx,vy,vz,ax,ay,az,jx,jy,jz
0,0.0055546999938087,0.0,0.0,0.0,-1.4665451049556863e-05,3.1420460391704734e-06,1.2922398780924395e-05,-0.0004696746943823221,0.0019562945853004174,-0.0004011891418521026,-0.0003881721180519807,0.007184116777530561,-0.004274163591022476
1,0.0096422000060556,-2.0370307762462843e-05,-2.934060161381424e-05,3.0435307064610876e-05,-7.848812649195435e-05,0.00020337396948260215,1.748197815960637e-05,-0.0008307893922225573,0.0033552240845312617,-0.0005480314264351575,-0.0013637490457507307,0.011871140373031514,-0.0051638560978192515
2,0.0133757000003242,-3.947382674447443e-05,-5.66348490636516e-05,3.58492494827568e-05,-0.00014284232865967308,0.000406341187131453,2.137185370871696e-05,-0.0011906174043600302,0.00475339254863555,-0.0006967973087722397,-0.0023193624129640503,0.016483563862890672,-0.006044660406470591
3,0.0170557999954326,-5.644696958681773e-05,-7.834821564642505e-05,3.098132322926993e-05,-0.00020771065895284094,0.0006120126279699274,2.457654985113631e-05,-0.0015489663619764709,0.006150109488759951,-0.0008474311104160508,-0.0032542764302528372,0.021017981062301173,-0.006915899084916408
4,0.0209914000006392,-5.644696958681773e-05,-7.834821564642505e-05,3.098132322926993e-05,-0.0002730754397536459,0.0008203558751422567,2.7080947566139396e-05,-0.0019056442112882165,0.007544682315362699,-0.0009998749855926066,-0.004167768671039018,0.025471029132126167,-0.007776895714007141
5,0.0248419999988982,-1.8179827005411606e-07,-7.166932328183786e-05,-9.285100567533479e-05,-0.000338918725914797,0.0010313371792122132,2.8870300889202723e-05,-0.0022604593683075635,0.008936416856036656,-0.0011540689373373092,-0.005059130787182179,0.02983939172709953,-0.00862697544660725
6,0.0292683000006945,-7.920347349619243e-05,-0.00015794996570705008,-1.841161449448819e-05,-0.0004052223163946328,0.0012449214721729732,2.9930253189568215e-05,-0.0026132208731754767,0.01032461787448394,-0.00130995083544891,-0.005927669212241814,0.034119802106298294,-0.0094654655676847
7,0.0326805000077001,-0.00012005675583082773,-0.00016870445156319663,6.579189867911731e-05,-0.00047196776602588514,0.0014610723821894035,3.0246853208688337e-05,-0.002963738543898903,0.011708589590099518,-0.0014674564362567792,-0.006772705851591763,0.03830904620235322,-0.010291696054827677
8,0.0370709999988321,-0.00015033884997450167,-0.00018901423195000574,0.00010439816891404205,-0.0005391363974050136,0.0016797522490542346,2.980657084291199e-05,-0.0033118231293266945,0.013087636197621143,-0.0016265194041951351,-0.007593578758567473,0.04240396564590694,-0.011105000138628241
9,0.0418754999991506,-0.00015033884997450167,-0.00018901423195000574,0.00010439816891404205,-0.0006067093128889455,0.0019009221403389891,2.859631265402771e-05,-0.0036572864611991206,0.014461062386303793,-0.0017870713351761255,-0.008389642795841975,0.04640146074187708,-0.011904714862371855
10,0.0459661000058986,-9.186040677725503e-05,-0.0001718078707588265,-1.7349719565284425e-05,-0.0006746674066859954,0.0021245418682199926,2.6603437091559086e-05,-0.0039999416051071214,0.015828173858078082,-0.001949041781751894,-0.00916027028124283,0.05029849339413374,-0.012690181640471424
11,0.0499392000056104,-0.00016064428128895918,-0.0002548931594152421,6.250712273133904e-05,-0.0007429913770276986,0.0023505700069592554,2.3815769411006253e-05,-0.004339603010198882,0.017188277844154262,-0.002112358280054014,-0.009904851617239797,0.054092089975257954,-0.013460746815085137
12,0.0544843999959994,-0.00016064428128895918,-0.0002548931594152421,6.250712273133904e-05,-0.0008116617384082732,0.0025789639110195147,2.022161627254665e-05,-0.004676086657472913,0.018540683619536216,-0.0022769463784969037,-0.010622795903351497,0.05777934413810944,-0.014215762210358616
13,0.0588109999953303,-0.00016064428128895918,-0.0002548931594152421,6.250712273133904e-05,-0.0008806588338784157,0.00280967973379226,1.580978000504765e-05,-0.005009210206498663,0.019884703014913407,-0.0024427296682301056,-0.011313531530739012,0.06135741956599795,-0.014954585683733802
14,0.0625613000011071,-0.00018042176414653346,-0.00031096327497055136,0.00014267005909813414,-0.000949962847380152,0.0030426724469171363,1.0569572520602419e-05,-0.005338793140407712,0.02121965092540301,-0.0026096298153225734,-0.011976506758274984,0.0648235526583232,-0.015676581673769594
15,0.0665511999977752,-0.00020011518633386745,-0.0003292373995861071,0.0002139621753085223,-0.0010195538161094915,0.003277895860170689,4.490828865178099e-06,-0.005664656909000918,0.022544845815619333,-0.0027775665946603734,-0.012611190269398444,0.06817505514862272,-0.01638112174392244
16,0.0709075000049779,-0.00019568281776510729,-0.00035417362203918475,0.0002561949293110602,-0.0010894116428936877,0.003515302641902045,-2.4360796086389025e-06,-0.00598662506981931,0.023859610220553166,-0.002946457925537523,-0.013217071709088287,0.07140931665204682,-0.017067585121739077
17,0.0751013999979477,-0.00019568281776510729,-0.00035417362203918475,0.0002561949293110602,-0.0011595161085699748,0.0037548443399927894,-1.0220232460401889e-05,-0.006304523427029207,0.025163271241750055,-0.0031162199089179703,-0.01379366220031192,0.07452380713936164,-0.017735359232918167
18,0.0791234000062104,-0.00011983878793670154,-0.00033851775428966245,0.00018141600321067971,-0.0012298468843527266,0.0039964714033179725,-1.8870147785237756e-05,-0.006618180167974841,0.026455161038283218,-0.0032867668663450495,-0.014340494839330031,0.07751607933466893,-0.018383840229702773
19,0.083849899994675,-0.00015655470303099423,-0.0004359906788849039,0.00030017740536866463,-0.0013003835441760861,0.004240133203684894,-2.839377025467917e-05,-0.0069274259972548395,0.0277346173120244,-0.003458011380473086,-0.014857125169263893,0.08038377103412138,-0.019012433513071542
20,0.0899203000008128,-0.0001574976771639675,-0.0004521507885881437,0.00036615187914109705,-0.0013711055769992215,0.00448577805822605,-3.87984595871553e-05,-0.007232094268182149,0.02900098378672403,-0.0036298643371941845,-0.015343131631357781,0.0831246073430072,-0.019620554248202932
21,0.0937591999972937,-0.00015456234906151617,-0.00047118504535137093,0.00041280807151905323,-0.0014419923990615072,0.004733353252222425,-5.009097945992326e-05,-0.007532021111490384,0.03025361068042082,-0.0038022349693316118,-0.015798115993396145,0.085736402828675,-0.02020762787269397
22,0.0985153000074205,-0.0001543291606985255,-0.0004903535715307008,0.00044686323273710024,-0.0015130233660750733,0.0049828050623330995,-6.227748687372971e-05,-0.007827045561153169,0.03149185517071033,-0.003975030901869596,-0.01622170375476291,0.08821706358687187,-0.02077309059702267
23,0.104059799996321,-0.00012072838988423959,-0.0005112317235643103,0.00047829215303171887,-0.00158417778534233,0.005234078780206995,-7.536352198098626e-05,-0.008117009677186765,0.032715081852411905,-0.004148158198687804,-0.01661354452765888,0.09056458921917188,-0.021316389896751657
24,0.1102785999974003,-0.00011623518533216211,-0.0005330508416390922,0.0005045912463031106,-0.0016554349277862512,0.005487118736452443,-8.935399838772271e-05,-0.008401758665310217,0.03392266318718377,-0.004321521410767206,-0.01697331239402226,0.0927770747192802,-0.0218369849959796
25,0.1167221000068821,-0.00011623518533216211,-0.0005330508416390922,0.0005045912463031106,-0.0017267740398814024,0.00574186832494018,-0.00010425319393905166,-0.008681140993341335,0.03511397994464697,-0.004495023625832532,-0.017300706237727236,0.09485271226610748,-0.022334347341556364
26,0.1210333000053651,-7.544105806330889e-05,-0.0005194942974552486,0.00044322876403472,-0.0017981743554739,0.005998270027415303,-0.00012006474199733495,-0.008955008504211067,0.03628842163459071,-0.004668566519395057,-0.01759545005166582,0.09678979292162226,-0.02280796106758811
27,0.125088600005256,-9.700127046595358e-05,-0.0005952430342478055,0.0005778363927135856,-0.0018696151074787152,0.006256265438393698,-0.00013679162322168936,-0.00922321652548321,0.03744538692984349,-0.004842050407158013,-0.0178572932193491,0.09858670823160609,-0.023257323449769017
28,0.1290372000075876,-9.356790354172578e-05,-0.0006119575666008329,0.0006605744615446289,-0.0019410755394429788,0.006515795290318439,-0.00015443615785690608,-0.009485623975270863,0.03858428407940741,-0.005015374298745518,-0.018086010770695545,0.10024195172755357,-0.023681945349087515
29,0.1333295000076759,-5.43402312531994e-05,-0.0006190479662953126,0.0007037388681823407,-0.0020125349169641924,0.006776799478951689,-0.0001729999985392876,-0.009742093464445656,0.03970453131146569,-0.005188435952714531,-0.018281403611705823,0.10175412032808095,-0.02408135164446656
30,0.1395511000009719,-5.577888734164902e-05,-0.0006569808542934232,0.000755648337980251,-0.0020839725389525253,0.007039217088977665,-0.00019248412362632511,-0.0099924913950405,0.04080555722588729,-0.005361131932807977,-0.018443298727755877,0.10312191563832908,-0.024455081653909635
31,0.1432912000018404,-3.72332841750178e-05,-0.0006691022522733319,0.0007871086153871678,-0.0021553677487266424,0.007302986419792344,-0.00021288883105655235,-0.010236688054751477,0.04188680117586601,-0.005533357665405971,-0.01857154936027258,0.10434414514597125,-0.02480268954373696
32,0.1476920999994035,1.1384896988145122e-05,-0.0006901016678929644,0.0008188592823289905,-0.0022266999449328,0.007568045011455665,-0.00023421373274531957,-0.01047455770744945,0.04294771363834592,-0.0057050074981307665,-0.01866603515658925,0.10541972331256201,-0.02512374472550941
33,0.1513195000006817,3.434166290814119e-05,-0.0007074858523420664,0.0008483487998237667,-0.002297948592277247,0.007834329670782176,-0.00025645774952163375,-0.010705978679617057,0.04398775657289927,-0.005875974759559855,-0.018726662292811568,0.10634767255909053,-0.02541783224025113
34,0.1552624000032665,4.9036167093038796e-05,-0.0007167557385676133,0.0008929533962761301,-0.0023690932320622814,0.008101776497546205,-0.00027961910661060624,-0.010930833442631956,0.04500640376873849,-0.006046151820000515,-0.018753363569557813,0.10712712414473116,-0.025684553129596117
35,0.1588394999998854,6.215796603286981e-05,-0.0007288630958986899,0.000927069668636736,-0.002440113492516641,0.008370320910777839,-0.0003036953296654433,-0.011149008690822483,0.046003141179559066,-0.006215430153277958,-0.018746098480471,0.10775731893791356,-0.02592352479349842
36,0.1625114000053145,7.046289298496105e-05,-0.0007460591965510782,0.000964752185431563,-0.0025109890989112285,0.008639897675126195,-0.0003286832413523035,-0.011360395415227166,0.0469774672459259,-0.006383700399488169,-0.0187048532534341,0.10823760807896537,-0.026134381334160364
37,0.1669148999935714,7.046289298496105e-05,-0.0007460591965510782,0.000964752185431563,-0.00258169988345151,0.008910440927266753,-0.00035457895849073533,-0.011564888972995,0.04792889320493162,-0.006550852428665487,-0.018629640864453265,0.10856745353371296,-0.026316773885848316
38,0.171709300004295,7.046289298496105e-05,-0.0007460591965510782,0.000964752185431563,-0.0026522257949382856,0.009181884202329745,-0.0003813778897517947,-0.011762389152368715,0.048856943386871604,-0.0067167754053140336,-0.018520501024207776,0.10874642853755775,-0.026470370930281033
39,0.1752543000038713,9.268048527633432e-05,-0.0007149717997774079,0.0008397919512497765,-0.002722546908188898,0.009454160460326955,-0.0004090747339153297,-0.011952800233198824,0.04976115549869662,-0.006881357853751179,-0.0183775001372992,0.10877421792967912,-0.02659485859729163
40,0.1787590000021737,9.268048527633432e-05,-0.0007149717997774079,0.0008397919512497765,-0.0027926434332112976,0.009727202112554564,-0.00043766347868730776,-0.012136031042941788,0.050641080894021126,-0.007044487724210356,-0.01820073123426584,0.10865061837714608,-0.02668994095048036
41,0.1839982999954372,0.0001096713903930033,-0.0007748172200917475,0.0009411704707258928,-0.002862495724123754,0.010000941047950058,-0.0004671374000774508,-0.012311995008101187,0.05149628482948193,-0.007206052459649687,-0.017990313876462015,0.10837553848885455,-0.026755340257591836
42,0.1879093000025022,8.174354541951666e-05,-0.0008306484815706835,0.0011078285487006038,-0.0029320842878133835,0.010275308659381643,-0.0004974890623368324,-0.01248061020107656,0.052326346707259004,-0.007365939063212165,-0.01774639403393502,0.10794899881933914,-0.02679079724536697
43,0.1917288999975426,7.845274094328427e-05,-0.0008368398131670905,0.0012024428203032164,-0.0030013897923270496,0.010550235869848866,-0.0005287103184544883,-0.012641799382390073,0.053130860303587345,-0.007524034166282382,-0.017469143936465557,0.10737113176264113,-0.02679607133863698
44,0.1958914999995613,9.106942083302497e-05,-0.0008495085524294979,0.0012819483344825794,-0.0030703930749885954,0.010825653158573662,-0.000560792311211488,-0.0127954900382669,0.05390943398310614,-0.007680224097084209,-0.01715876189797033,0.1066421813365455,-0.026770940883443676
45,0.1998847000068053,9.106942083302497e-05,-0.0008495085524294979,0.0012819483344825794,-0.003139075150236758,0.011101490586961422,-0.0005937254747903167,-0.012941614413550762,0.05466169089890887,-0.007834394949763202,-0.016815472114498003,0.10576250285763165,-0.02671520335398804
46,0.204147099997499,0.00013952334573723405,-0.0007984973031103489,0.0011603466707953407,-0.003207417217178516,0.011377677824412203,-0.0006274995369368254,-0.013080109539941763,0.05538726917817556,-0.007986432653897011,-0.01643952443608176,0.10473256250771228,-0.02662867554322648
47,0.2083522000029916,0.00013952334573723405,-0.0007984973031103489,0.0011603466707953407,-0.0032754006668530163,0.011654144173962626,-0.0006621035216714187,-0.013210917259549208,0.05608582209328564,-0.008136223044376596,-0.016031194112743542,0.10355293679236409,-0.026511193736951776
48,0.2124099000066053,0.00023522973196210263,-0.000825110380525652,0.0011510127988363752,-0.0033430070892016468,0.01193081859773955,-0.0006975257525455755,-0.013333984243757849,0.05675701821832762,-0.008283651931600593,-0.015590781514976207,0.1022243118923814,-0.0263626138712136
49,0.2169640000065555,0.00016225487876713826,-0.00088246885761435,0.0012766799433786978,-0.0034102182797401993,0.01220762974220709,-0.0007337538564392297,-0.01344926200741163,0.05740054157093928,-0.008428605171924845,-0.015118611829060904,0.10074748290910954,-0.026182811672951424
50,0.2207462999940617,0.00013395243614869372,-0.0008740461760405613,0.0013801182941478119,-0.003477016245929489,0.012484505963189044,-0.0007707747678939743,-0.013556706918324522,0.058016091739429496,-0.008570968738308813,-0.014615034727606906,0.09912335300474018,-0.025971682783730767
51,0.2291913999943062,0.00013318738287539707,-0.0008796217202496911,0.0014668042109590152,-0.003543383213241188,0.012761375350649458,-0.0008085747339765048,-0.01365628020213347,0.058603383995150256,-0.008710628791100428,-0.014080424015730947,0.09735293243877328,-0.025729142866491708
52,0.2333589000045322,0.0001629348004166747,-0.0008821170810863761,0.0015118194368334043,-0.0036093016309160647,0.013038165753214566,-0.0008471393196661688,-0.013747947942513945,0.059162149390104876,-0.008847471748900725,-0.013515177253321967,0.09543733750197124,-0.025455127695236616
53,0.2375083999941125,0.0001629348004166747,-0.0008821170810863761,0.0015118194368334043,-0.0036747541774122274,0.013314804802419901,-0.0008864534137599521,-0.013831681076784121,0.059692134839795755,-0.008981384359449514,-0.012919715353865659,0.09337778934924955,-0.025149593227602265
54,0.2417048000061186,0.0002691209410424011,-0.0008059719966413094,0.0013529398663875776,-0.0037397237655413594,0.013591219936666869,-0.0009265012352877185,-0.013907455386928901,0.06019310319133191,-0.009112253770473243,-0.012294482160330774,0.09117561273306529,-0.02481251566027969
55,0.2460242999950423,0.00020899548871697334,-0.0008908360471969485,0.0013845534691237578,-0.003804193547291367,0.013867338424873827,-0.0009672663404300038,-0.013975251486080344,0.060664833276833335,-0.009239967600436312,-0.011639943998646115,0.08883223463897853,-0.02444389146726335
56,0.2502831000019796,0.0003015127667669922,-0.0008182440087277634,0.001337498336480082,-0.0038681469183342618,0.014143087389807222,-0.001008731629930175,-0.014035054800496192,0.061107119952186165,-0.009364414009137042,-0.01095658920932333,0.08634918282517337,-0.024043737420929065
57,0.254338300001109,0.0003015127667669922,-0.0008182440087277634,0.001337498336480082,-0.003931567522218502,0.014418393831079054,-0.001050879356992279,-0.014086855547083388,0.06151977412121956,-0.00948548176808967,-0.010244927657805998,0.08372808426783399,-0.02361209059595827
58,0.2587174999935087,0.000328580833830066,-0.0008096050722686517,0.001321460911434848,-0.00399443925424545,0.014693184647797529,-0.0010936911356554382,-0.01413064870651849,0.06190262274539137,-0.009603060330633942,-0.009505490224149987,0.08097066351437725,-0.02314900835614385
59,0.2630817000026582,0.00026927571772831864,-0.0008519561558341405,0.0014254904381207675,-0.004056746265029979,0.014967386660858365,-0.001137147949635198,-0.014166433992021913,0.06225550883908591,-0.009717039901714117,-0.008738828272663724,0.07807874094664631,-0.022654568324130618
60,0.2676330999966012,0.0002472061672197497,-0.0008488345539993968,0.001507087436350294,-0.004118472963745707,0.015240926634864973,-0.0011812301616217944,-0.014194215813847623,0.06257829145064296,-0.009827311507269513,-0.007945513102159735,0.07505423095626947,-0.022128868334161222
61,0.2715173000033246,0.0002552483124895505,-0.000843130569086266,0.0015540678440296952,-0.0041796040210556815,0.015513731299666211,-0.0012259175230248775,-0.01421400323955467,0.06287084562925303,-0.009933767063179099,-0.007126135377490708,0.07189914003448507,-0.021572026367915578
62,0.276426900003571,0.00028318675581238376,-0.0008340828231102045,0.0015170380112392115,-0.004240124371729745,0.015785727371501197,-0.0012711891841538164,-0.014225809950131469,0.06313306237786946,-0.010036299443703087,-0.006281304543064194,0.06861556477882695,-0.020984180473549587
63,0.2823437000042759,0.00028318675581238376,-0.0008340828231102045,0.0015170380112392115,-0.004300019216950187,0.01605684157374121,-0.0013170237048223267,-0.01422965419204835,0.06336484859230268,-0.010134802549364951,-0.005411648219049946,0.0652056898191543,-0.02036548866805594
64,0.2861254000017652,0.00028318675581238376,-0.0008340828231102045,0.0015170380112392115,-0.004359274026307651,0.016327000657219534,-0.001363399065365787,-0.014225558725318345,0.06356612698667725,-0.010229171374217904,-0.004517811581012821,0.06167178566559627,-0.019716128823086723
65,0.2914194000040879,0.00038875813683119834,-0.0008018679022056107,0.0013837843549507783,-0.004417874539489605,0.016596131420140735,-0.0014102926780592408,-0.01421355076765016,0.06373683600544619,-0.010319302072440426,-0.0036004567237220048,0.05801620648106495,-0.01903629853439421
66,0.295573700001114,0.0003844614709118584,-0.0008053091729935826,0.001389871572244317,-0.004475806767664116,0.01686416072756146,-0.0014576813989237408,-0.014193661934781497,0.06387692972217107,-0.010405092024206197,-0.002660262009904247,0.05424138778106904,-0.01832621497506257
67,0.30004070000723,0.00039003152598794026,-0.0007993075360550929,0.0013942217019150497,-0.0045330569945619655,0.017131015530435622,-0.0015055415399083689,-0.014165928177084737,0.06398637772529095,-0.010486439900774441,-0.001697921404724543,0.05034984406363573,-0.017586114732719153
68,0.303968000007444,0.00039100285128176003,-0.0008058249385936166,0.0013881069642540872,-0.004589611777260535,0.017396622884217474,-0.0015538488814349485,-0.01413038971254087,0.06406516499111553,-0.010563245728747462,-0.0007141437967924273,0.04634416637221959,-0.01681625363093015
69,0.3082267999998294,0.00039337331935283414,-0.0008037206443664458,0.001383600981349964,-0.004645457946673202,0.017660909967016768,-0.0016025786852921792,-0.014087090956181257,0.06411329174429141,-0.010635410953442987,0.0002903476934943352,0.04222701979454407,-0.01601690653500085
70,0.3117350999964401,0.00039337331935283414,-0.0008037206443664458,0.001383600981349964,-0.004700582607748338,0.01792380409730088,-0.0016517057078656505,-0.014036080446100371,0.06413077330600245,-0.010702838501329878,0.0013148164174443739,0.038001140900384874,-0.01518836714241599
71,0.31532409999636,0.00039388763278590955,-0.0008059930087764907,0.0013869485977113568,-0.004754973139382292,0.01818523275113947,-0.0017012042136899436,-0.013977410766145894,0.06411763993017758,-0.0107654328414767,0.002358512912569952,0.03366933512136279,-0.014330947758170745
72,0.3203733999980613,0.0004036354144165572,-0.0008134540469253597,0.0013806943322069592,-0.004808617194051079,0.018445123578987827,-0.0017510479893087867,-0.013911138465395923,0.06407393662799057,-0.010823100045963603,0.0034206756272408432,0.029234474075868818,-0.013444979055257272
73,0.3245883000054164,0.0004017834318991346,-0.0008202664050645694,0.001383282047436473,-0.004861502697165754,0.018703404422005843,-0.0018012103574290156,-0.013837323974535931,0.0639997229809475,-0.01087574784920903,0.004500531654639726,0.024699492842295032,-0.012530809820585923
74,0.3288236999942455,0.00039922945175483636,-0.0008234921557091812,0.001382160019049481,-0.00491361784615681,0.01896000332791015,-0.0018516641913538954,-0.01375603151925102,0.06389507294286877,-0.010923285706163823,0.005597297475155966,0.020067387183791103,-0.011588806686634034
75,0.3331961999938357,0.00040200297814996916,-0.0008374075728504401,0.001387980663428182,-0.0049649511092932,0.01921484856635749,-0.001902381929681181,-0.013667329030751777,0.06376007463108298,-0.01096562484932651,0.006710179706347813,0.015341210727808504,-0.010619353849128727
76,0.3373599000042304,0.00040200297814996916,-0.0008374075728504401,0.001387980663428182,-0.005015491224241869,0.019467868643858098,-0.0019533355912511375,-0.013571288053554459,0.06359483010715963,-0.011002678344534667,0.00783837585959735,0.010524072103732025,-0.009622852771083065
77,0.3417152000038186,0.00040200297814996916,-0.0008374075728504401,0.001387980663428182,-0.005065227196373956,0.019718992318218633,-0.002004496790329615,-0.013467983650638757,0.06339945514751695,-0.011034361145488596,0.00898107510257795,0.005619132041931752,-0.008599721873517648
78,0.3456483000045409,0.00039605900641734114,-0.0008420636995598529,0.001386348026313897,-0.005114148296824074,0.01996814861251464,-0.0020558367520111384,-0.013357494306108459,0.06317407900424937,-0.011060590146964693,0.010137459026650633,0.0006296004375976416,-0.007550396213211783
79,0.3491019000066444,0.00039605900641734114,-0.0008420636995598529,0.001386348026313897,-0.005162244060309308,0.020215266828593224,-0.0021073263278268534,-0.013239901825482422,0.06291884415652842,-0.011081284236677178,0.011306702418303515,-0.004441266617256481,-0.00647532714784011
80,0.3543802000058349,0.00040663361559052034,-0.0008705505092777275,0.0013768398442046766,-0.005209504282714805,0.02046027656010711,-0.002158936011542088,-0.013115291233745089,0.06263390605293788,-0.011096364345748358,0.012487974033747346,-0.009590169830212407,-0.0053749819888617946
81,0.3582795999973314,0.00040643426163978206,-0.0008744802413538406,0.0013776670741921999,-0.005255919018453051,0.020703107705081953,-0.002210635955128247,-0.01298375067128743,0.06231943284511159,-0.01110575349774892,0.013680437375780242,-0.014813769729867572,-0.004249843642540136
82,0.3618196000024909,0.0004031422492332379,-0.000873714516944808,0.0013677796139553479,-0.005301478577604128,0.020943690478019413,-0.0022623959848936956,-0.012845371287870814,0.06197560511304912,-0.011109376856271277,0.014883251472035878,-0.02010868970882124,-0.003100410239480803
83,0.3652565999946091,0.00039773803480165816,-0.0008714230668298531,0.0013661035994258037,-0.005346173522844471,0.021181955421539007,-0.0023141856177582563,-0.012700247134747536,0.06160261558249128,-0.01110716177100036,0.016095571653731707,-0.02547151908478526,-0.001927194753086707
84,0.3706040999968536,0.00039620346760565296,-0.0008695519698637677,0.0013639671985072935,-0.005389994666171821,0.02141783341756237,-0.0023659740776559666,-0.01254847505507287,0.06120066883474301,-0.01109903782224784,0.017316550334037218,-0.030898816176375122,-0.0007307246073369372
85,0.3749702000059187,0.00038701385070095176,-0.0008583431451787017,0.0013567162695503885,-0.005432933065434216,0.021651255698044155,-0.002417730312050725,-0.012390154572744524,0.06076998100933571,-0.011084936863917242,0.018545337785186716,-0.03638711139013858,0.0004884587256940074
86,0.3790485000063199,0.0003754201718266029,-0.0008572243191490357,0.0013607323586046836,-0.005474980020671049,0.02188215385525432,-0.0024694230085494932,-0.012225387779806219,0.060310779499925776,-0.011064793064868983,0.019781082913466797,-0.04193291031538501,0.0017298001381520936
87,0.3877649000060046,0.0003667291382153162,-0.000854319466701045,0.0013679992789864962,-0.005516127070274384,0.022110459851617182,-0.002521020611597764,-0.012054279222552616,0.05982330264383087,-0.011038542948656022,0.021022934031215464,-0.04753269682338876,0.002992731308122335
88,0.3920597999967867,0.00036371964549263724,-0.0008452436245074908,0.0013651088730303445,-0.005556365986978875,0.022336106029113,-0.0025724913392420616,-0.011876935786473303,0.059307799405608416,-0.011006125431602436,0.0222700396249776,-0.05318293616755427,0.00427667113031035
89,0.3977159000060055,0.00035049234889661813,-0.0008378400108686228,0.0013792516528087892,-0.005595688773688701,0.022559025118248328,-0.0026238031999443394,-0.011693466580173761,0.05876452905508406,-0.010967481859198906,0.023521549118970295,-0.05888007808114914,0.005581026155240381
90,0.4035276000067824,0.0003365245666716457,-0.0008371472415179494,0.0013902805162721962,-0.005634087659150071,0.022779150246601838,-0.0026749240094332276,-0.01150398281841134,0.058193760840240444,-0.01092255604079062,0.024776613633021367,-0.06462055986923404,0.006905191036516991
91,0.4086471000046003,0.00033100278462107254,-0.0008171008411748174,0.0014082134778694835,-0.005671555093477953,0.02299641494695292,-0.002725821407577195,-0.011308597704384117,0.057595773655378664,-0.010871294282534878,0.02603438673415536,-0.07040080949144509,0.008248548985691943
92,0.4124003000033553,0.00023723506240874958,-0.0008540600594170217,0.0014766420043988559,-0.005708083743545791,0.023210753165000677,-0.0027764628752648276,-0.011107426311410425,0.05697085570496629,-0.010813645418607333,0.02729402518101306,-0.07621724863231494,0.009610472234272497
93,0.4166895999951521,0.00021251812480550995,-0.0008405959965517992,0.001533744763587164,-0.00574366648824699,0.023422099266681512,-0.002826815751277587,-0.0109005854641363,0.056319304163586874,-0.01074956084063764,0.028554689660303462,-0.08206629575585339,0.010990322502402736
94,0.4206925000034971,0.0002045349751289244,-0.00082585588131644,0.0015607682441697518,-0.005778296413637102,0.02363038804509377,-0.002876847249140563,-0.010688193619407503,0.05564142483240603,-0.010678994525356967,0.029815545514500913,-0.08794436914114691,0.012387451473745426
95,0.4250333999953,0.00020644904148978648,-0.0008213762832177041,0.001568832671631336,-0.0058119668079656414,0.023835554727038532,-0.0029265244739369056,-0.010470370746941984,0.05493753179256929,-0.010601903060441663,0.03107576346001487,-0.09384788989577911,0.013801201276088344
96,0.4291742000059457,0.00019960080942455264,-0.0008088484807257602,0.0015736070164093683,-0.005844671156606514,0.02403753497918592,-0.0029758144390718126,-0.010247238209937814,0.05420794705594632,-0.010518245668539088,0.032334520295075275,-0.09977328494391947,0.015230904967195858
97,0.4333209000033093,0.00019233168251184667,-0.0008027348509755561,0.0015774146412037009,-0.005876403136896044,0.024236264913876676,-0.0030246840829721623,-0.010018918645750554,0.053453000213634944,-0.010427984229463436,0.03359099959659307,-0.10571698998597763,0.016675887025424083
98,0.4373183999996399,0.00018613097189805843,-0.0007859054472095293,0.001587816085995566,-0.005907156612887658,0.024431681094569013,-0.003073100285708118,-0.009785535846772712,0.05267302808263709,-0.010331083300551195,0.03484439240527271,-0.11167545242677376,0.018135463844615975
99,0.4414659000030951,0.0001712180011389691,-0.0007735821682914486,0.001591569027180844,-0.005936925630032276,0.024623720540941023,-0.0031210298855232476,-0.009547214641646639,0.05186837435111681,-0.01022751013516759,0.036093897898271776,-0.11764513426923234,0.019608944232791272
100,0.4458753999933833,0.0001493888477285338,-0.0007616816016970153,0.0016101949394538508,-0.005965704409793421,0.024812320733659472,-0.003168439695259978,-0.009304080776940622,0.05103938922264792,-0.010117234699357162,0.03733872404872164,-0.123622514970666,0.02109562991414528
101,0.4500122000026749,0.00012914395892527054,-0.000747592606264484,0.0016272498065473026,-0.0059934873442060695,0.02499741961882595,-0.0032152965186674426,-0.009056260799416287,0.05018642905985587,-0.010000229686633486,0.038578088271443,-0.12960409425877958,0.022594816033870042
102,0.4542684000043664,0.00011393461235640495,-0.0007292838245311307,0.0016440691319582798,-0.0060202689903882094,0.02517895561211162,-0.0032615671665790877,-0.008803881939013557,0.04930985602785517,-0.009876470530904676,0.03981121805421029,-0.13558639490459073,0.02410579166531159
103,0.4583642999932635,7.425035621593829e-05,-0.0007070877636076193,0.001675623880563084,-0.00604604406501405,0.025356867602592145,-0.0033072184729476713,-0.0085470719926775,0.04841003773787978,-0.009745935417533207,0.04103735157394024,-0.1415659654495329,0.025627840318977767
104,0.4625476999935927,0.00013950785199540124,-0.0006532756137931683,0.001592376291039496,-0.0060708074387577655,0.02553109495629448,-0.0033522173107255982,-0.008285959209149195,0.04748734689149958,-0.009608605292530414,0.04225573829720179,-0.1475393828840797,0.02716024045291217
105,0.4669404000014765,8.011913457580831e-05,-0.0006804088099509236,0.001649961256452295,-0.006094554130716583,0.02570157751946767,-0.0033965306075788414,-0.008020672174840641,0.04654216092581115,-0.00946446386988781,0.04346563956446645,-0.15350325527530262,0.028702265983951463
106,0.4704387999954633,5.923087569820755e-05,-0.0006580445705684114,0.0017026899107181275,-0.006117279302821993,0.02586825562158981,-0.0034401253614230196,-0.007751339700911331,0.04557486165998566,-0.00931349763704913,0.044666329157541394,-0.15945422434085224,0.03025318679938546
107,0.4746095000009518,4.532008133213156e-05,-0.0006377407634800455,0.0017483959162245088,-0.006138978254247741,0.026031070078123626,-0.0034829686557705346,-0.007478090711661523,0.04458583494355104,-0.009155695858528764,0.04585709384965108,-0.1653889679669326,0.031812269268542
108,0.4792065000074217,3.1236375723455275e-05,-0.0006231140758051314,0.0017790917567362151,-0.006159646415823172,0.02618996219303339,-0.0035250276748780207,-0.007201054134354664,0.04357547030677976,-0.008991050577683976,0.0470372339376577,-0.17130420266792062,0.033378776753822004
109,0.4834821999975247,3.1236375723455275e-05,-0.0006231140758051314,0.0017790917567362151,-0.0061792793444604525,0.026344873761075867,-0.003566269718683677,-0.006920358790578701,0.04254416061354721,-0.008819556616650015,0.04820606375593492,-0.17719668598536883,0.0349519701207138
110,0.4875683999998728,8.882876444033496e-05,-0.0005802434487287849,0.0016750246903621438,-0.006197872717604067,0.02649574706987818,-0.003606662217524433,-0.006636133289253175,0.04149230171701887,-0.008641211574448993,0.04936291217143455,-0.1830632188242159,0.0365311082463199
111,0.4910963000002084,3.055935015516112e-05,-0.0005825916919258288,0.001732506456617679,-0.006215422327710863,0.02664252490181557,-0.0036461727466232485,-0.0063485059213860984,0.040420292118517144,-0.008456015823285102,0.05050712305951102,-0.18890064772411963,0.038115448525934126
112,0.4957813000073656,4.577389813382081e-07,-0.0005540298022915608,0.0018086522366130803,-0.006231924076768769,0.02678515053570211,-0.0036847690403372223,-0.0060576045566815865,0.03932853262991117,-0.00826397250304042,0.05163805576009486,-0.19470586706391782,0.03970424737721185
113,0.5003303999983473,-1.9964756559511186e-05,-0.0005218552577300516,0.0018753855027166624,-0.006247373970862179,0.026923567748307238,-0.003722419006157583,-0.005763556542096065,0.03821742603986505,-0.008065087513987166,0.05275508551383229,-0.20047582119731444,0.04129676074148201
114,0.5040061000036076,-4.612401017538832e-05,-0.0004964960762664473,0.0019035027659969504,-0.0062617681147918115,0.027057720815711405,-0.0037590907384530163,-0.005466488602437622,0.03708737678427179,-0.007859369507733915,0.05385760387783459,-0.206207506517985,0.042892244581755
115,0.5082488000043668,-6.267077507779281e-05,-0.0004692074231555124,0.0018915183981506047,-0.006275102706756751,0.02718755451451392,-0.0037947525319481936,-0.0051665267430997495,0.035938790621191805,-0.007646829876424891,0.05494501912070742,-0.21189797345238914,0.04448995537698743
116,0.5122718000056921,-6.978327369192845e-05,-0.00044534660119534107,0.0018871280542684273,-0.006287374033106192,0.02731301412290637,-0.0038293728949297286,-0.004863796155017326,0.03477207431060584,-0.007427482740213043,0.05601675659655753,-0.2175443283786772,0.04608915061217131
117,0.5164769999973942,-7.368592345962337e-05,-0.0004182931339093522,0.0018732456156212573,-0.006298578463168263,0.027434045421624947,-0.003862920562172202,-0.0045584211219292375,0.033587635299283394,-0.00720134493302921,0.057072259097701326,-0.22314373547017616,0.04768908926382274
118,0.520018600000185,-7.213443399868206e-05,-0.0003910108593357945,0.0018609673053106184,-0.006308712444163087,0.027550594694794966,-0.003895364507577285,-0.0042505249300284955,0.0323858814110585,-0.006968435986671118,0.05811098718582771,-0.22869341846204042,0.04928903228045249
119,0.5236813999945298,-2.8409150952854114e-05,-0.0003335923207134718,0.0017248265412281648,-0.0063177724962071085,0.027662608730680598,-0.003926673956519407,-0.003940229780077105,0.031167220542795054,-0.00672877811323748,0.05913241950139494,-0.23419066233975322,0.05088824305760895
120,0.5286176999943564,-7.97731867507819e-05,-0.00033877561690826214,0.0017974995383227624,-0.006325755207415456,0.02777003482235269,-0.003956818397891833,-0.0036276567020592206,0.02993206036631402,-0.006482396185933877,0.06013605305106879,-0.23963281494826744,0.052485987907092614
121,0.5330418999947142,-8.318686324916304e-05,-0.00031383664786277597,0.0018157221421943985,-0.006332657229108893,0.02787282076828772,-0.003985767595847419,-0.003312925472442429,0.028680808036544644,-0.00622931771827861,0.06112140347303701,-0.24501728852067564,0.054081536519950145
122,0.5372654999955557,-8.05451528655988e-05,-0.0002904404779489729,0.0018071162834704699,-0.006338475271131772,0.02797091487291065,-0.004013491601228737,-0.0029961545341132354,0.027413869906151668,-0.00596957284173797,0.062088005280062676,-0.25034156112540357,0.05567416242286483
123,0.5416384999989532,-7.558745589420788e-05,-0.0002734355129011518,0.0018000396524301481,-0.006343206097287184,0.028064265947094567,-0.004039960762682657,-0.0026774609190490066,0.02613165124687989,-0.0057031942818218315,0.06303541208016662,-0.2556031780310245,0.05726314342756976
124,0.5457026000076439,-7.549754686201726e-05,-0.00024234579317585013,0.001798074208270301,-0.006346846520895246,0.028152823308629903,-0.004065145737454881,-0.002356960173784778,0.024834555977847048,-0.005430217332671686,0.06396319677485666,-0.2607997529878947,0.05884776207291988
125,0.5493224999954691,-9.188126836591274e-05,-0.00020138920971903034,0.0017997759010189632,-0.006349393400480285,0.02823653678267568,-0.004089017501860369,-0.0020347662877294136,0.02352298640100506,-0.0051506798301745845,0.06487095173484925,-0.2659289694259154,0.0604273060592691
126,0.5529043999995338,-9.904901794282929e-05,-0.00017951820283522484,0.0018124937441723584,-0.006350843635592407,0.0283153567022053,-0.004111547361425999,-0.0017109916243816961,0.022197342943978914,-0.004864622123637613,0.06575828895325633,-0.2709885815678297,0.062001068674809166
127,0.5576964000065345,-0.00012730920088879639,-0.00012006159397238883,0.0018114687055361,-0.006351194162768711,0.02838923390845903,-0.0041327069607022164,-0.001385746855492965,0.020858023910481176,-0.004572087046058745,0.0666248401762382,-0.2759764154575678,0.06356834921353814
128,0.5623676999966847,-0.00013969902014740137,-8.607876255720403e-05,0.0018120346411147766,-0.006350441951639193,0.02845811975141525,-0.004152468292740855,-0.001059140898218957,0.019505425238489048,-0.004273119883031005,0.06747025701114934,-0.2808903699032574,0.06512845338453684
129,0.5665938000020105,-0.00014356811457906702,-4.801689601807875e-05,0.0017931588265691861,-0.006348584001182151,0.028521966090292318,-0.004170803708236726,-0.0007312808552995255,0.018139940266359324,-0.003967768340317997,0.06829421101223128,-0.2857284173346206,0.06668069371224314
130,0.5708580000064103,-0.00014356811457906702,-4.801689601807875e-05,0.0017931588265691861,-0.006345617336133661,0.02858072529409259,-0.0041876859243309816,-0.00040227195830092277,0.016761959507045326,-0.003656082510139931,0.06909639374393292,-0.29048860457457987,0.06822438992742512
131,0.5748310000053607,-0.00015564123900678415,1.1218768854459875e-05,0.0017828541672597177,-0.006341539003555456,0.02863435024219996,-0.004203088033074624,-7.2217513951326e-05,0.015371870430568296,-0.0033381148362102418,0.06987651682196559,-0.29516905352499784,0.06975886934856562
132,0.5790677000040887,-0.00016593859691291056,6.204318017089498e-05,0.0017832788880887504,-0.006336346069565285,0.028682794325042206,-0.004216983509550972,0.00025878114640368933,0.01397005725488433,-0.003013920077563827,0.07063431193222569,-0.2997679617665788,0.07128346725338326
133,0.5832228999934159,-0.00015994746121548444,8.615787210466204e-05,0.0018039319577830399,-0.006330035616233639,0.02872601144482887,-0.004229346219656267,0.0005906247142030135,0.01255690074527629,-0.002683555271218852,0.07136953082774361,-0.30428360307305924,0.07279752724022678
134,0.5872705000074347,-0.00015269971394262554,0.00012936843596880824,0.0018082422546668356,-0.006322604738650409,0.02876395601637539,-0.004240150427538024,0.0009232159479104603,0.011132778022388589,-0.002347079693714912,0.07208194530384272,-0.3087143278399142,0.07430040157909237
135,0.5909882999985712,-0.00015269971394262554,0.00012936843596880824,0.0018082422546668356,-0.006314050542164803,0.02879658296802386,-0.00424937080269111,0.0012564597140790365,0.009698062379011142,-0.002004554821571132,0.07277134715171704,-0.3130585634279072,0.07579145155202603
136,0.5943728999991436,-0.0002450473266538667,0.00013756398912667076,0.0018125229439775654,-0.006304370139801615,0.028823847742670574,-0.004256982426711953,0.0015902630252281672,0.008253123105707055,-0.001656044290708528,0.07343754809066015,-0.3173148144219062,0.07727004778268592
137,0.5985799000045517,-0.00021502290340819877,0.00024372498256175663,0.001838031949144175,-0.006293560649856663,0.028845706298910232,-0.004262960799711644,0.001924535074526939,0.006798325325366973,-0.0013016138548816731,0.07408037967920245,-0.32148166280548507,0.07873557055485203
138,0.6040900999942096,-0.00022517771947234763,0.0002747456764311594,0.001831893807863371,-0.006281619193673947,0.0288621151123062,-0.004267281846389043,0.0022591872672802983,0.0053340298367614645,-0.0009413313431653265,0.07469969320543692,-0.32555776805192527,0.08018741011968318
139,0.6081715000036638,-0.00023235494667173503,0.0003060745768999331,0.0018287941563379976,-0.006268542893606818,0.028873031176796012,-0.004269921921765425,0.002594133249218989,0.0038605929671511863,-0.00057526661654228,0.07529535955683661,-0.3295418671323265,0.08162496699153439
140,0.6134139000059804,-0.000244482364620147,0.0003431753173372136,0.0018257893492961402,-0.006254328871165239,0.0288784120062409,-0.004270857816582501,0.002929288931597811,0.002378366434003211,-0.00020349152363920714,0.07586726906988944,-0.33343277444162644,0.08304765223216096
141,0.6170049000065774,-0.000256770535301955,0.00037339246075672266,0.0018209604142760576,-0.006238974245350908,0.028878215636127712,-0.00427006676236604,0.0032645725131105452,0.0008876972158503882,0.00017392014434221433,0.0764153313598975,-0.3372293816434166,0.08445488772314878
142,0.6208909999986645,-0.0002746406607543742,0.000411224324711893,0.0018210296855494,-0.00622247613118179,0.028872400625431515,-0.004267526436157597,0.003599904498633607,-0.000611072567680746,0.0005568926994512052,0.07693947513131011,-0.3409306574345335,0.08584610642642371
143,0.6248844999936409,-0.0002848548857942004,0.0004517558097800245,0.0018130268541021626,-0.006204831638407336,0.028860926058646704,-0.004263214964917253,0.003935207714814146,-0.0021176057666592693,0.0009453486035227367,0.07743964796898,-0.3445356472304876,0.08722075263270625
144,0.6291533000039635,-0.00029338841090906584,0.0004905645794530834,0.0018184934269536083,-0.006186037870415451,0.028843751547993998,-0.004257110929600595,0.004270407322521925,-0.003631570302453267,0.0013392085153729372,0.07791581611075217,-0.34804347277287784,0.08857828219779104
145,0.6334792999987258,-0.00031485974285835736,0.0005219662147155403,0.0018215209483773687,-0.006166091923331953,0.028820837235810283,-0.004249193368913396,0.004605430826187869,-0.005152639260155259,0.0017383913386063978,0.07836796420181381,-0.3514533316600223,0.089918162766544
146,0.6374886999983573,-0.00032516720728138933,0.0005541114644406706,0.001828299223447589,-0.006144990885313061,0.028792143797127964,-0.004239441782747884,0.004940208080055639,-0.006680490971848492,0.002142814269986508,0.07879609503125191,-0.3547644968021134,0.09123987398452338
147,0.6416100000060396,-0.0003371000666778285,0.0005732488709810496,0.001842331715285902,-0.006122731836031178,0.028757632442450266,-0.00422783613530472,0.005274671291376013,-0.00821480909074371,0.00255239284831979,0.07920022925128424,-0.3579763158022862,0.09254290769714354
148,0.6465275999944424,-0.0003476554354714307,0.0005947776666152011,0.0018539936302542648,-0.006099311846353985,0.02871726492072836,-0.004214356857905157,0.005608755020577172,-0.009755282656226603,0.002967041003805104,0.07958040507964617,-0.3610882102650608,0.09382676813631446
149,0.6499640999973053,-0.0003598030677021875,0.0006134769467481557,0.001873458995824345,-0.00607472797821662,0.028671003522545764,-0.004198984851498081,0.005942396178447325,-0.011301606149866594,0.003386671107798528,0.07993667798563235,-0.36409967503369406,0.09509097209450304
150,0.6555670999950962,-0.00037270262693818077,0.000632893355836345,0.0018981584376281412,-0.006048977284686477,0.028618811083515192,-0.004181701488866906,0.0062755340203692325,-0.01285347954244775,0.0038111940229447307,0.08026912036030805,-0.3670102773580445,0.09633504908617607
151,0.6609957000036957,-0.00038408968556070814,0.0006530056093127658,0.001911806232907668,-0.006022056810219927,0.028560650987892903,-0.004162488616541591,0.006608110137649355,-0.014410608332092756,0.004240519153625715,0.08057782117142032,-0.36981965599462446,0.09755854149659736
152,0.6665388999972492,-0.0004048969428136335,0.0006634971526408149,0.0019336724132888252,-0.005993963591110043,0.02849648717241493,-0.004141328556421278,0.006940068445987306,-0.01597270357356077,0.004674554496677909,0.08086288560355269,-0.372527520240579,0.09876100471796531
153,0.6707081000058679,-0.0004244609812748274,0.0006880539722847652,0.0019434169303617936,-0.005964694656124162,0.028426284130359247,-0.004118204107113309,0.007271355171134304,-0.017539481898809692,0.005113206692328731,0.08112443468408052,-0.3751336489033912,0.09994200727289035
154,0.6750761000002967,-0.000440874744099159,0.0007108315654725,0.001958257043386429,-0.005934247027329892,0.028350006915837504,-0.004093098544994617,0.007601918831792131,-0.019110665528922845,0.0055563810753039905,0.0813626048954974,-0.3776378892081764,0.10110113092522419
155,0.6789729000010993,-0.0004674987689022231,0.0007188979031613895,0.001974419713976149,-0.005902617721107921,0.028267621148319575,-0.004065995625001678,0.007931710219806909,-0.020685982277509223,0.0060039817260577446,0.0815775477746944,-0.3800401556444857,0.10223797077826555
156,0.6835681999946246,-0.000488605870861655,0.0007369496904794185,0.0019855586566772596,-0.00586980374934983,0.028179093017393693,-0.004036879581155483,0.008260682377714665,-0.02226516554569554,0.006455911522076595,0.0817694294997852,-0.38234042875459157,0.10335213536038022
157,0.6878443000023253,-0.0005251533114793891,0.0007652737346989557,0.0020133675975063797,-0.005835802120838844,0.02808438928776442,-0.004005735126828166,0.008588790573698248,-0.023847954308836985,0.0069120721892107365,0.0819384304650808,-0.38453875386528086,0.10444324669808547
158,0.6919419000041671,-0.0005513325655776586,0.0007823791250943023,0.002023597643363302,-0.005800609842811261,0.027983477304490596,-0.003972547454758122,0.008915992274017612,-0.02543409309508219,0.007372364352984493,0.0820847448448264,-0.38663523976522673,0.1055109403766611
159,0.6967224999971222,-0.0005513325655776586,0.0007823791250943023,0.002023597643363302,-0.005764223922696082,0.02787632499846473,-0.003937302236820609,0.009242247112977879,-0.02702333195593611,0.00783668758983957,0.0822085801463216,-0.38863005733005973,0.1065548655883623
160,0.7005531000031624,-0.0005869238603611676,0.0008082848736867879,0.002030695229805504,-0.005726641370030202,0.027762900892135012,-0.0038999856235610005,0.009567516860501796,-0.02861542642897248,0.008304940478264742,0.08231015675305284,-0.39052343809729834,0.10757468516832033
161,0.7076067000016337,-0.0006028224710472426,0.0008279285334104292,0.0020543106029750464,-0.005687859198546297,0.027643174105470607,-0.0038605842434979967,0.00989176538737545,-0.03021013749285526,0.008777020649766274,0.08238970745847413,-0.39231567279333657,0.10857007561822976
162,0.7122935999941546,-0.0006028224710472426,0.0008279285334104292,0.0020543106029750464,-0.005647874428430354,0.027517114362170542,-0.0038190852022042714,0.01021495862823816,-0.031807231514835894,0.009252824839633937,0.0824474769910779,-0.39400710981472437,0.10954072711793203
163,0.7168162000016309,-0.0006028224710472426,0.0008279285334104292,0.0020543106029750464,-0.005606684088745626,0.027384691996116345,-0.003775476081172157,0.010537064542389429,-0.033406480190900464,0.009732248937458202,0.08248372153140306,-0.39559815366601064,0.11048634352501732
164,0.7211890000035055,-0.0006266578517492756,0.0008454785903559936,0.0020724791631838366,-0.005564285220019633,0.027245877958068054,-0.00372974493647209,0.010858053072487614,-0.035007660478747794,0.010215188037354819,0.08249870822163162,-0.39708926335644956,0.1114066423625779
165,0.7246584999957122,-0.0006355267163947767,0.0008470406562629815,0.0021116323759124566,-0.0055206748769906465,0.027100643822602903,-0.0036818802972116292,0.011177896101216767,-0.03661055452378603,0.010701536487853817,0.08249271466842975,-0.3984809507578971,0.11230135479525667
166,0.7288237000029767,-0.0006418912388122314,0.0008494147340227895,0.0021144967202933363,-0.005475850131509922,0.026948961795295438,-0.003631871163802958,0.011496567405999731,-0.03821494957834151,0.011191187941410715,0.08246602843969056,-0.399773778926249,0.11317022559374662
167,0.7329209000017727,-0.000661842475473342,0.0008599575277101248,0.002134133293423318,-0.005429808075595798,0.02679080472013741,-0.003579707006046884,0.011814042611837074,-0.039820637914279686,0.01168403540349855,0.08241894655583853,-0.40096836038879596,0.11401301308790561
168,0.7368090999952983,-0.0006757175250850205,0.0008615146824607555,0.002146038840840939,-0.005382545824635612,0.026626146087195546,-0.0035253777610414136,0.012130299142352847,-0.04142741672924372,0.012179971281240239,0.0823517749763559,-0.40206535539988686,0.1148294891086619
169,0.7413728999963496,-0.0006757175250850205,0.0008615146824607555,0.002146038840840939,-0.005334060520731224,0.026454960040504946,-0.00346887383092306,0.012445316169129516,-0.04303508804672169,0.012678887431541669,0.08226482808219235,-0.40306547016730737,0.11561943891889663
170,0.7455936000042129,-0.0006911782431204362,0.0008795231583257036,0.002143778247447298,-0.005284349336183797,0.026277221386195426,-0.00341018608044908,0.012759074559415546,-0.04464345861015857,0.01318067520868676,0.08215842815471856,-0.40396945505179277,0.11638266113349878
171,0.7503649999998743,-0.0007253718993141136,0.0008868754362333774,0.0021659866683291108,-0.005233409477113357,0.02609290560084783,-0.003349305834428866,0.013071556822290211,-0.046252339771333896,0.013685225511356798,0.0820329048518826,-0.4047781027421048,0.11711896762879757
172,0.7547707000048831,-0.0007253718993141136,0.0008868754362333774,0.0021659866683291108,-0.005181238187208535,0.025901988840077,-0.0032862248750127683,0.013382747053371145,-0.047861547373230014,0.014192428829037387,0.0818885946822262,-0.40549224640810766,0.1178281834415861
173,0.7593920999934198,-0.0007482638769891637,0.0009044721197420092,0.002171297452122879,-0.005127832751601769,0.025704447947337578,-0.0032209354388466633,0.013692630878150973,-0.04947090162762035,0.014702175287777388,0.08172584047741506,-0.4061127578342816,0.11851014665795875
174,0.7646671999973478,-0.0007646421415367574,0.0009033631059627129,0.002183658748148065,-0.005073190500865166,0.02550026046294849,-0.0031534302141005763,0.01400119539405009,-0.05108022698761071,0.01521435469526534,0.08154499086393317,-0.40664054553611334,0.11916470829219365
175,0.7685541999962879,-0.0007646421415367574,0.0009033631059627129,0.002183658748148065,-0.005017308815122047,0.02528940463333159,-0.0030837023373796475,0.01430842911127319,-0.052689352015370165,0.01572885658518991,0.0813463997345876,-0.40707655286179945,0.11979173215591978
176,0.7723845000000438,-0.0007916444785528324,0.0009109051694779842,0.0021941512661005254,-0.0049601851282691425,0.025071859420459818,-0.0030117453905257304,0.014614321892557727,-0.054298109245291167,0.01624557026085201,0.08113042572046417,-0.4074217560816942,0.12039109471781649
177,0.7757836999953724,-0.0008937160301573486,0.0008919382144624963,0.002248535746766642,-0.004901816932304284,0.024847604511509774,-0.0029375533973178968,0.014918864891902911,-0.055906335042821255,0.016764384837997505,0.08089743166396868,-0.4076771624679259,0.1209626849541
178,0.7796010000020033,-0.0010074205432691397,0.0009290410521129834,0.0023154902096686925,-0.004842201781754378,0.024616620328713496,-0.002861120820080075,0.01522205049236812,-0.057513869459211685,0.017285189286840613,0.08064778409358124,-0.40784380836659206,0.12150640419005852
179,0.7856502000067849,-0.0010074205432691397,0.0009290410521129834,0.0023154902096686925,-0.004781337298198362,0.024378888039403725,-0.0027824425562040134,0.015523872243029877,-0.059120556082430296,0.01780787247324924,0.08038185270094367,-0.4079227572649291,0.12202216593290562
180,0.789852100002463,-0.0008307768253444088,0.0008955128039056684,0.002310052204007838,-0.004719221174879761,0.02413438956624672,-0.0027015139345956977,0.015824324795186508,-0.06072624188448769,0.018332323199064776,0.08010000982089185,-0.40791509785583774,0.1225098956962271
181,0.7933081999944989,-0.0010161048540310107,0.0008740043613647837,0.0023957390550651825,-0.004655851181403427,0.02388310759765626,-0.0026183307120533077,0.01612340383789956,-0.06233077706542788,0.018858430241530312,0.07980262991503646,-0.4078219421021248,0.1229695308163031
182,0.7969592000008561,-0.0010236291925552427,0.0008073746234963364,0.0024563091010970303,-0.004591225168510955,0.023625025598382286,-0.0025328890695847047,0.016421106032960993,-0.06393401489423525,0.019386082391802326,0.07949008905948604,-0.40764442330279943,0.1234010202605929
183,0.8005146000068635,-0.0010236291925552427,0.0008073746234963364,0.0024563091010970303,-0.004525341072929225,0.023360127820267355,-0.0024451856086723637,0.016717428949374852,-0.06553581154691071,0.019915168492522235,0.0791627644372963,-0.40738369416373604,0.12380432442867606
184,0.8068062999955146,-0.0010236291925552427,0.0008073746234963364,0.0024563091010970303,-0.00445819692228647,0.023088399313163768,-0.002355217347493575,0.017012370997441757,-0.06713602594197063,0.020445577474425495,0.07882103383621852,-0.4070409248749915,0.12417941494594895
185,0.8123952000023564,-0.0010236291925552427,0.0008073746234963364,0.0024563091010970303,-0.004389790840090277,0.02280982593600409,-0.0022629817171036346,0.01730593136253412,-0.06873451957362292,0.020977198391967183,0.07846527515230894,-0.4066173011970329,0.12452627445038009
186,0.8165867000061553,-0.0008696489058274958,0.0008514411624051035,0.002470896102191579,-0.004320121050761858,0.022524394368017474,-0.002168476557589642,0.01759810993864948,-0.07033115634287454,0.021509920457944556,0.07809586589994937,-0.4061140225581005,0.12484489637263238
187,0.820699699994293,-0.0009897819369003944,0.0008666707717700289,0.0025928455009437035,-0.004249185884720879,0.02223209212008399,-0.002071700114202397,0.017888907261828586,-0.07192580238682386,0.02204363307709836,0.07771318272881625,-0.4055323001648951,0.1251352847098639
188,0.8247039999987464,-0.0009993550347994484,0.0008831186165161361,0.0026656135105737147,-0.00417698378351514,0.021932907546218933,-0.0019726510334737895,0.018178324443524223,-0.07351832590639122,0.022578225878675966,0.07731760094832234,-0.4048733551287429,0.12539745379352288
189,0.8289454000041587,-0.0009691732992476162,0.0008712132939781137,0.0027148184949718655,-0.004103513304989385,0.02162682985517893,-0.0018713283593269209,0.01846636310400596,-0.07510859699273954,0.023113588747940696,0.07690949406004113,-0.40413841660935085,0.1256314280514554
190,0.8333152999985032,-0.0009210265559131863,0.0008557503220435018,0.0027632177124619394,-0.004028773128487516,0.021313849122181393,-0.001767731529186087,0.01875302530588498,-0.07669648745263623,0.023649611856613125,0.07648923329861115,-0.4033287199782236,0.12583724176464842
191,0.8373195000021951,-0.0009014880922293607,0.0008400219667852922,0.002795553490125757,-0.003952762060082508,0.02099395630072871,-0.0016618603700935713,0.019038313487842233,-0.0782818706330055,0.024186185692231604,0.07605718718160191,-0.4024455050037722,0.126014938818932
192,0.8416102000046521,-0.0009014880922293607,0.0008400219667852922,0.002795553490125757,-0.0038754790378283115,0.020667143234528437,-0.0015537150948400635,0.019322230398641824,-0.07986462124491966,0.024723201086420763,0.07561372106880845,-0.4014900140600993,0.1261645724519681
193,0.8456934999994701,-0.0009014880922293607,0.0008400219667852922,0.002795553490125757,-0.003796923137028094,0.020333402669500487,-0.001443296298115346,0.01960477903151031,-0.08144461518727535,0.025260549242058068,0.07515919673142576,-0.40046349036139794,0.12628620499585408
194,0.8502810000063619,-0.0009789082213724817,0.0007454677699906019,0.0028846381184909776,-0.0037170935755131544,0.01999272826586223,-0.0013306049526857161,0.019885962558961415,-0.08302172937039873,0.02579812175932987,0.07469397193153852,-0.3993671762238463,0.12637990761567108
195,0.8544203000055859,-0.0008906334312037571,0.0007853609948820847,0.00296837368672722,-0.0036359897189268933,0.019645114610282184,-0.001215642405604453,0.02016578426814437,-0.08459584153982151,0.02633581066066972,0.0742184000123455,-0.39820231135683354,0.12644576004430821
196,0.8583363000070676,-0.0008904333375998492,0.0007198516548970361,0.0030660515947464537,-0.0035536110860082217,0.019290557228092874,-0.001098410374461451,0.020444247496792668,-0.08616683010046672,0.026873508414573283,0.07373282949952129,-0.39697013118529606,0.12648385031389428
197,0.8624443000007886,-0.0008904333375998492,0.0007198516548970361,0.0030660515947464537,-0.0034699573538688713,0.018929052595553133,-0.0009789109436779614,0.020721355569848453,-0.08773457394148042,0.02741110795828534,0.07323760371410047,-0.3956718652048943,0.12649427448416986
198,0.8670433999941451,-0.0010245071986688848,0.0006147234967642007,0.0031884369713025026,-0.0033850283632590613,0.01856059815215019,-0.0008571465608521982,0.02099711173683629,-0.08929895226194223,0.02794850271935603,0.07273306039725244,-0.394308735371701,0.12647713636813218
199,0.870943800007808,-0.0009169088753038459,0.000635040658000876,0.003242519404618884,-0.0032988241238160417,0.018185192312931666,-0.0007331200331613532,0.02127151911005837,-0.09085984439768403,0.028485586636064746,0.07221953134729678,-0.39288195452801616,0.12643254725528397
200,0.8750387000036426,-0.0009104468228989866,0.0005967584614468223,0.0032713727982444066,-0.003211344819290115,0.017802834480857465,-0.0006068345238253791,0.021544580603681578,-0.09241712964944247,0.029022254176711584,0.07169734206929239,-0.3913927248658626,0.12636062563281847
201,0.8790821000002325,-0.0009293587853858781,0.0005590902796312127,0.0033322885555827405,-0.003122590812742776,0.01741352505916145,-0.0004782935486376815,0.021816298873784792,-0.09397068711256638,0.0295584003577775,0.07116681143751455,-0.3898422364296592,0.12626149690507227
202,0.8835479999979725,-0.0009206660829895133,0.0004943741129491844,0.003404873349533958,-0.003032562651711675,0.017017265463712815,-0.0003475009725676618,0.022086676259433235,-0.09552039550849667,0.03009392076095555,0.0706282513711157,-0.38823166565950434,0.12613529311157448
203,0.8868911000026856,-0.0009152175918779006,0.00047434702982640227,0.00344676116799182,-0.002941261073337185,0.01661405813536714,-0.00021446100643983935,0.02235571472484439,-0.09706613301823189,0.03062871154905705,0.0700819665232471,-0.38656217397643905,0.12598215264402
204,0.8912896999972872,-0.0009152175918779006,0.00047434702982640227,0.00344676116799182,-0.0028486870094454153,0.016203906552296882,-7.917820369406181e-05,0.022623415802708234,-0.09860777711798827,0.031162669480797784,0.06952825398390007,-0.3848349064110009,0.12580221996249388
205,0.895616699999664,-0.0010344648942821493,0.0003540247286225441,0.003547514194816838,-0.0027548415915826133,0.01578681524229118,5.8342542768902195e-05,0.02288978053872246,-0.10014520441725797,0.03169569192447068,0.0689674029967068,-0.3830509902763113,0.12559564531127054
206,0.8998146999947494,-0.0009239884011011637,0.00038754752477027923,0.003592571449821596,-0.002659726155995963,0.015362789795014688,0.0001980960036523212,0.023154809437401416,-0.10167829049946475,0.03222767687051263,0.06839969468992159,-0.381211533886874,0.1253625844345091
207,0.904283800002304,-0.0009259388790168294,0.000340797234095126,0.003627113542948468,-0.002563342248555898,0.014931836874215204,0.000340076616235165,0.023418502409215298,-0.10320690976541091,0.032758522942974586,0.06782540182178463,-0.37931762532419755,0.12510319829216243
208,0.9082989000016825,-0.0009181249351619238,0.00030431819613576706,0.003664758460746804,-0.0024656916296151234,0.014493964229869783,0.0004842784872468564,0.02368085871911403,-0.10473093527970423,0.03328812940990521,0.06724478854045016,-0.37737033125028724,0.1248176527764151
209,0.9123503000009804,-0.0009157240825077549,0.0002779319603053036,0.003706377295027359,-0.0023667762787996306,0.014049180710259096,0.0006306953956417226,0.02394187693648799,-0.10625023862034824,0.03381639619265971,0.0666581101586419,-0.3753706957699848,0.12450611842896091
210,0.9165154000074835,-0.0009120823902185887,0.00025816711266986043,0.0037473081620108344,-0.002266598399727088,0.013597496273959708,0.0007793207952699851,0.024201554886615597,-0.1077646897316736,0.034343223874146483,0.06606561294317963,-0.37331973934306595,0.12416877015942793
211,0.9207650000025752,-0.0009039539140935917,0.00021685411912262728,0.0038022264970830914,-0.002165160424648124,0.013138922001743974,0.0009301478174423603,0.024459889603645573,-0.10927415678078302,0.03486851370602521,0.0654675339195014,-0.37121845774693935,0.1238057869652546
212,0.9245542999997268,-0.0009039539140935917,0.00021685411912262728,0.0038022264970830914,-0.002062465019006103,0.012673470108377327,0.001083169273385578,0.024716877285159197,-0.11077850601767655,0.03539216761487184,0.06486410069128662,-0.36906782109071795,0.12341735165331613
213,0.9287791999959154,-0.001057342497497506,0.00010581783191822584,0.003920950452323349,-0.0019585150859111155,0.012201153954302687,0.0012383776565863547,0.024972513248355855,-0.11227760163921714,0.03591408820732637,0.06425553127526534,-0.3668687728813659,0.12300365056359472
214,0.9347032000077888,-0.0009164921486267094,0.00014735579507690584,0.003952031619290189,-0.0018533137705240227,0.011721988057201803,0.0013957651450215971,0.02522679188790271,-0.1137713056570911,0.036434178774240565,0.06364203395128055,-0.36462222914255477,0.12256487329518292
215,0.9395282000041334,-0.0009164921486267094,0.00014735579507690584,0.003952031619290189,-0.001746864464346494,0.011235988103423364,0.0015553236032728353,0.025479706635487005,-0.11525947776991172,0.036952343293844093,0.06302380712765086,-0.36232907758679467,0.12210121243490477
216,0.9432470000028844,-0.0010517826878959566,3.670184867954102e-05,0.004032654309996731,-0.0016391708094131048,0.010743170959267787,0.0017170445845231203,0.025731249921106977,-0.11674197523960828,0.037468486433948095,0.06240103922186227,-0.359990176841335,0.12161286328883347
217,0.9477119999937712,-0.0009364054918751883,9.971326699905066e-05,0.004060662841635802,-0.0015302367023816723,0.010243554682118737,0.001880919332434861,0.02598141313613512,-0.11821865277223657,0.03798251355320684,0.061773908556598776,-0.3576063557282613,0.12110002361697807
218,0.9527768999978434,-0.000950565756473502,8.821939937227793e-05,0.004097896103571984,-0.0014200662985181477,0.009737158531411426,0.0020469387829073,0.02623018659818479,-0.1196893624033395,0.0384943307014586,0.06114258327110292,-0.35517841259914734,0.12056289337140633
219,0.9581206000002568,-0.0009630272196701909,7.866352042831901e-05,0.004137583687803269,-0.0013086640155725046,0.009224002979427857,0.0022150935657125597,0.02647755951780893,-0.12115395338798038,0.03900384461916794,0.06050722124783896,-0.3527071147245518,0.1200016744380649
220,0.9622606000048108,-0.0009785414077031552,7.190367570815794e-05,0.004177213367963225,-0.0011960345375422012,0.008704109721909301,0.0023853740060094247,0.02672351996705722,-0.12261227209556576,0.039510962735992444,0.05986797005441286,-0.35019319773858204,0.11941657038255139
221,0.9675516999996034,-0.00098728154596089,6.110093883017888e-05,0.004222475011184446,-0.0010821828183199228,0.0081775016884764,0.0025577701257342603,0.02696805484991561,-0.12406416190956679,0.04001559316849832,0.05922496690068512,-0.34763736513867616,0.1188077862000858
222,0.9716523999959464,-0.0009929233927881463,5.333466054007114e-05,0.004263106886178419,-0.0009671140852224453,0.007644203052847354,0.0027322716448686993,0.027211149874649603,-0.12550946313224187,0.04051764471704995,0.05857833861099435,-0.34504028784068785,0.11817552806992258
223,0.979115099995397,-0.0009919920313435247,4.426139111136191e-05,0.004304045415335305,-0.0008508338423975977,0.007104239242844877,0.0029088679825839325,0.027452789528070416,-0.12694801289445581,0.04101702686189906,0.057928201611392595,-0.34240260378929094,0.11752000311443778
224,0.983559400003287,-0.0009951815133484164,2.408014877486775e-05,0.004353544384296988,-0.0007333478741064386,0.006557636950182623,0.0030875482582616793,0.027692957051740574,-0.12837964507068497,0.041513649758500366,0.05727466193177575,-0.33972491762365264,0.1168414191631182
225,0.987603300003684,-0.000994620017435245,6.601066686184745e-06,0.004401355353790906,-0.0006146622478778982,0.006004424140021986,0.003268301292392138,0.027931634420133203,-0.1298041901992916,0.042007424232081036,0.05661781522277586,-0.3370078003982648,0.11613998452167322
226,0.9914538000011816,-0.0009819618913815627,2.537632464440459e-05,0.0044639647193237784,-0.000494783317533277,0.005444630060290295,0.003451115607349415,0.02816880232075656,-0.13122147540814247,0.0424982617714917,0.05595774678726513,-0.33425178935875266,0.11541590774648024
227,0.995696300000418,-0.0009825599036374132,1.6198560186568177e-05,0.004520366238644621,-0.00037371772607812766,0.00487828525075153,0.003635979428045147,0.028404440136253234,-0.1326313243456403,0.0429860745223679,0.055294531626304974,-0.33145738777241956,0.11466939742456798
228,1.0001629000034882,-0.0009855228300099405,1.1188589481791154e-07,0.004566026493833147,-0.0002514724084591916,0.004305421551820893,0.003822880682461255,0.028638525928481012,-0.13403355711722964,0.043470775279631176,0.05462823449935751,-0.32862506481321974,0.11390066195933468
229,1.0039875000074971,-0.0009841622732525113,-1.0939109551295727e-05,0.004606893532100145,-0.0001280545941841999,0.003726072113114729,0.004011807002062962,0.02887103642458,-0.1354279902274326,0.043952277479359404,0.05395890999856112,-0.32575525550079354,0.1131099093621893
230,1.0083267000009073,-0.0009841622732525113,-1.0939109551295727e-05,0.004606893532100145,-3.47180980249258e-06,0.003140271401727429,0.0042027457220934275,0.02910194700502825,-0.1368144365274627,0.04443049519005689,0.0532866026368564,-0.3228483606931353,0.11229734705029643
231,1.0123908999958076,-0.0011036086249872883,-0.00010159047783639386,0.004724237209663814,0.00012226811875545255,0.0025480552102271127,0.004395683881751539,0.029331231693685886,-0.13819270516845916,0.04490534310335514,0.05261134694973382,-0.3199047471324034,0.11146318165059714
232,1.0165993999980856,-0.0010094701268496785,-2.956109501865505e-05,0.004749665444195336,0.00024915706398134324,0.001949460664362109,0.004590608224254608,0.029558863149825393,-0.13956260156037645,0.04537673652417576,0.05193316761036001,-0.31692474754332345,0.11060761881026986
233,1.0207114000077129,-0.0010062778208303404,-3.5393666371163644e-05,0.0047789869357594775,0.0003771865947368709,0.0013445262304704504,0.004787505196787927,0.02978481266214382,-0.14092392733655762,0.04584459136038706,0.051252079557825646,-0.3139086607835778,0.10973086301378615
234,1.0247862999967765,-0.001001762088811003,-5.194436449962206e-05,0.004817934329895485,0.0005063479743474645,0.00073329172258478,0.0049863609503432976,0.030009050144749947,-0.14227648032401366,0.04630882411198656,0.05056808813824417,-0.3108567520455204,0.10883311740670816
235,1.02915600000415,-0.0010003958634313863,-4.898231882690925e-05,0.00485100674939559,0.0006366321588433396,0.00011579830922525268,0.005187161339448814,0.030231544135117583,-0.14362005451942364,0.04676935185984198,0.049881189258417356,-0.3077692531084985,0.1079145836263654
236,1.03322539999499,-0.0010046990134568502,-2.7360990634913438e-05,0.004903750243295023,0.0007680297953490455,-0.0005079114801267891,0.005389891921792373,0.03045226179399382,-0.14495444007086536,0.04722609225402345,0.049191369551771134,-0.3046463626410111,0.10697546163954044
237,1.0368226999999024,-0.0010054556633024916,-2.3586728674776687e-05,0.004944240599100358,0.0009005312206225683,-0.0011377937488813701,0.005594537957741577,0.030671168907249104,-0.14627942326527904,0.04767896350175997,0.048498606556252905,-0.30148824655187834,0.10601594958728418
238,1.0415809999976773,-0.0010054556633024916,-2.3586728674776687e-05,0.004944240599100358,0.0010341264597449138,-0.0017738032275254768,0.005801084409762833,0.03088822988965392,-0.1475947865216597,0.04812788435505354,0.047802868903869894,-0.2982950383895491,0.10503624363697218
239,1.0449255999992602,-0.001137371710429178,-7.897813321496548e-05,0.005057349503185073,0.0011688052249609554,-0.0024158932681482823,0.006009515941742622,0.03110340779056481,-0.14890030838996776,0.04857277409798448,0.047104116521536704,-0.2950668397886221,0.10403653784170515
240,1.0482868999970378,-0.00102503376293868,2.6249963242252778e-05,0.005080556967842789,0.001304556914672197,-0.0030640158393123737,0.006219816918214106,0.031316664301500416,-0.1501957635557417,0.049013552533741726,0.04640230084288947,-0.2918037209626108,0.1030170240071471
241,1.0515730000042822,-0.000983631211912799,-2.205046195237004e-06,0.005082009007662175,0.0014413706125819589,-0.0037181215212771387,0.006431971403492382,0.031527959765586054,-0.15148092285039036,0.049450139971411795,0.045697365030713734,-0.28850572124193735,0.10197789156588644
242,1.0571634999942034,-0.0009790329550536524,3.3186233656013094e-07,0.005115851441946856,0.0015792350869933678,-0.0043781595015802465,0.006645963160721846,0.03173725318884366,-0.1527555532671359,0.049882457212560315,0.0449892442096235,-0.2851728496560924,0.10091932745939566
243,1.0626670000056038,-0.0009790329550536524,3.3186233656013094e-07,0.005115851441946856,0.001718138790260399,-0.005044077570982927,0.0068617756508392415,0.031944502253301886,-0.1540194179825743,0.050310425537640015,0.04427786570861971,-0.2818050855588588,0.09984151602765728
244,1.066612199996598,-0.0011059548201152935,-4.371047257427374e-05,0.0052418514526261775,0.0018580698583920835,-0.005715822119784516,0.007079392031456132,0.03214966333189938,-0.15527227638381297,0.0507339666922591,0.04356314931314796,-0.278402379295454,0.09874463890651357
245,1.0709470000001602,-0.0009891482796977535,9.777385783184354e-05,0.005263951042652136,0.001999016110809871,-0.006393338134511505,0.0072987951556646325,0.03235269150515264,-0.15651388410113926,0.05115300287334365,0.04284500752626689,-0.27496465291040784,0.09762887493278885
246,1.0751855999988038,-0.0009891482796977535,9.777385783184354e-05,0.005263951042652136,0.002140965050258013,-0.007076569194986092,0.007519967570770375,0.03255354057955778,-0.15774399304616835,0.05156745671522778,0.04212334583853157,-0.2714918008949526,0.09649440005722446
247,1.0792404999956489,-0.0011051263127091057,2.8864191525854177e-05,0.005356587577730976,0.002283903862866715,-0.007765457471778999,0.007742891516956771,0.032752163107694264,-0.15896235145541407,0.051977251275705044,0.041398063006188694,-0.2679836909726684,0.09534138726525745
248,1.083621800004039,-0.0010001902277090385,0.00016785328435598573,0.005368239214340774,0.002427819418367669,-0.00845994372405112,0.00796754892588478,0.032948510409996794,-0.1601687039392205,0.052382310022074614,0.04066905133727374,-0.2644401649220918,0.09417000650566512
249,1.0874286000034772,-0.0010001902277090385,0.00016785328435598573,0.005368239214340774,0.0025726982704614544,-0.009159967297788315,0.008193921419232489,0.03314253259816043,-0.161362791535987,0.05278255681721532,0.03993619698519462,-0.2608610394349676,0.09298042462708848
250,1.0916604999947594,-0.0010001902277090385,0.00016785328435598573,0.005368239214340774,0.0027185266573361688,-0.00986546612443344,0.008421990307178896,0.03333417860014231,-0.16254435177161383,0.05317791590572038,0.03919938024938097,-0.257246107008791,0.09177280532243974
251,1.0961147000052731,-0.0010001902277090385,0.00016785328435598573,0.005368239214340774,0.002865290502336554,-0.010576376719919466,0.008651736586836375,0.03352339618672187,-0.16371311872409128,0.05356831190012541,0.038458475882573104,-0.2535951368722617,0.09054730908118908
252,1.10022019999451,-0.0010001902277090385,0.00016785328435598573,0.005368239214340774,0.0030129754147827908,-0.011292634184107274,0.008883140940636367,0.03371013199958029,-0.16486882309315024,0.05395366976726202,0.037713353404320464,-0.24990787594224118,0.08930409314951777
253,1.1057699999946635,-0.0011368334985014381,0.00010747105602030823,0.005457076438716913,0.0031615666909379997,-0.012014172200631576,0.009116183734673003,0.033894331580858514,-0.16601119227488803,0.05433391481476901,0.03696387742025588,-0.24618404981078304,0.08804331149831589
254,1.1104821000044467,-0.0010850278992677698,0.00030576080038334963,0.00566277526598897,0.0033110493151233826,-0.012740923037158021,0.009350845017009404,0.03407593940415204,-0.16713995044127883,0.05470897267779268,0.036209907946708836,-0.24242336376078125,0.08676511479899424
255,1.1144850999990012,-0.0010771334571248504,0.0003280771972444766,0.005783818194452431,0.0034614079609798375,-0.013472817546054349,0.00958710451595144,0.034254898906899256,-0.16825481862447345,0.05507876930590749,0.03545130074021858,-0.23862550380876235,0.08546965040707291
256,1.1189141000068048,-0.0010735378991328234,0.0003483312501704125,0.00583504527598652,0.003612626992874774,-0.01420978516547826,0.009824941638293826,0.03443115252411928,-0.16935551480578917,0.05544323095028792,0.03468790763150495,-0.23479013777333063,0.08415706235349944
257,1.1224586000025738,-0.0010735378991328234,0.0003483312501704125,0.00583504527598652,0.0037646904674527816,-0.014951753920884433,0.010064335467543458,0.03460464172345367,-0.1704417540092859,0.05580228415116158,0.03391957686345402,-0.23091691636775766,0.08282749134364199
258,1.1259264999971492,-0.0011832227848660706,0.000272492117895649,0.005976991744269014,0.003917582135328707,-0.01569865042695292,0.010305264762124951,0.03477530704146584,-0.17151324839982138,0.05615585572557372,0.03314615343267451,-0.22700547431519444,0.08148107476389485
259,1.1293155000021216,-0.0010872801813934488,0.000435347771459487,0.005993872330158346,0.004071285442921582,-0.016450399889940827,0.010547707953573335,0.03494308812115104,-0.1725697073854744,0.056503872755492054,0.03236747943418032,-0.22305543148496937,0.08011794669582539
260,1.13432759999705,-0.0010857587424954072,0.0004652569099730258,0.006020923399102554,0.004225783534427762,-0.017206926110459035,0.010791643144718952,0.03510792375060879,-0.17361083772422164,0.05684626257628095,0.03158339440875484,-0.2190663940484254,0.07873823793778385
261,1.1396021999971708,-0.001096997872763788,0.0004995022162107927,0.006056040650374173,0.004381059253931524,-0.01796815148667537,0.01103704810786963,0.03526975190282904,-0.17463634363475009,0.057182952765572746,0.030793735692553025,-0.21503795565273962,0.0773420760338903
262,1.1433328999992227,-0.0011220408587704158,0.0005990580842956262,0.00612923162925376,0.00453709514765133,-0.01873399701794553,0.011283900282995167,0.03542850977654251,-0.1756459269112835,0.05751387113256389,0.029998338768498535,-0.21096969861116238,0.07592958531030514
263,1.1475531000032788,-0.0011323915627638329,0.0006231259775433381,0.006152808292926632,0.004693873466319849,-0.01950438230887272,0.011532176775919282,0.035584133838085064,-0.17663928704229903,0.05783894570776257,0.029197037619035148,-0.20686119510810919,0.07450088691868252
264,1.150907000002917,-0.0011323915627638329,0.0006231259775433381,0.006152808292926632,0.004851376167695764,-0.0202792255737968,0.011781854356524174,0.03573655986422557,-0.17761612133300725,0.05815810473321387,0.02838966507979354,-0.20271200841753245,0.07305609888669837
265,1.1559668999980204,-0.0012752483320162707,0.0005661296285223022,0.006267102025930269,0.005009584919205329,-0.021058443641713637,0.012032909456972817,0.035885722985905734,-0.17857612503146583,0.05847127665322769,0.027576053193737467,-0.19852169413300252,0.07159533617553747
266,1.1602663999947254,-0.0011838904185750736,0.0007284556636171009,0.006278638558549005,0.005168481100711571,-0.021841951961625184,0.012285318169954188,0.036031557732840384,-0.17951899145819428,0.05877839010563403,0.026756033565356302,-0.19428980140792515,0.0701187107442182
267,1.1640239999978803,-0.0011768065681850915,0.0007543531342144511,0.00629115142245696,0.005328045807408925,-0.022629664608320534,0.012539056246956577,0.03617399807892617,-0.18044441213915582,0.05907937391358975,0.025929437714474736,-0.19001587420432625,0.06862633162062615
268,1.1675630999961868,-0.0011807237826102195,0.0007801794725656358,0.006330509782448126,0.005488259852841061,-0.023421494288587863,0.012794099096574097,0.03631297748840643,-0.18135207694197095,0.059374157077959996,0.025096097429254366,-0.18569945254863926,0.06711830497912173
269,1.1709892000071704,-0.0011835381442773952,0.0008081604547189311,0.006361502557990103,0.005649103772039579,-0.024217352347856987,0.013050421782851533,0.03644842896273947,-0.1822416742152238,0.05966266877029661,0.024255845117966725,-0.181340073792936,0.06559473422458077
270,1.1750674000068102,-0.0011728648903948588,0.0008481977172592908,0.006413567774879764,0.005810557824781237,-0.025017148777272093,0.013307999023672612,0.03658028508811735,-0.18311289093072153,0.05994483832643496,0.023408514159122314,-0.17693727388004957,0.06405572008272051
271,1.1795110999955796,-0.0011943900937165701,0.0008799862674130361,0.006429962109066728,0.005972601998961305,-0.025820792221193822,0.013566805189196675,0.03670847808358208,-0.18396541282856466,0.06022059524072973,0.022553939249545716,-0.17249058861104652,0.06250136069655778
272,1.184220600000117,-0.0011943900937165701,0.0008799862674130361,0.006429962109066728,0.0061352160140805525,-0.02662818998512981,0.013826814300348753,0.036832939849685935,-0.1847989245648848,0.06048986916094953,0.021691956749992577,-0.16799955491351712,0.060931751728840515
273,1.1886009000008926,-0.0013460708387450805,0.0008049183286475107,0.006547503135696775,0.006298379324843375,-0.027439248044092462,0.014088000027367986,0.03695360201764282,-0.18561310986210594,0.06075258988384921,0.0208224050279108,-0.16346371210916485,0.059346986470288375
274,1.1918646999984048,-0.001276666124410925,0.0010053372906105038,0.0065504635387908005,0.006462071124864505,-0.028253871051382627,0.014350335688419298,0.0370703959989176,-0.18640765166158418,0.06100868735143781,0.019945124796954986,-0.15888260317919192,0.05774715595347289
275,1.1958700999966825,-0.001276666124410925,0.0010053372906105038,0.0065504635387908005,0.006626270350481718,-0.029071962347797638,0.014613794248273165,0.03718325303520067,-0.18718223227848158,0.06125809164795903,0.01905995945287033,-0.15425577602599108,0.056132349072162524
276,1.200089999998454,-0.001422579475832351,0.000928641231618943,0.0066431740638362765,0.006790955684671903,-0.029893423971262066,0.014878348317058436,0.03729210424871475,-0.18793653355872617,0.06150073299760012,0.018166755405369595,-0.14958278472967418,0.05450265270595334
277,1.204127699995297,-0.0013233322461658893,0.0010758531810122073,0.006610112420146194,0.006956105561067798,-0.03071815666687948,0.015143970149092929,0.03739688069280117,-0.18867023703790994,0.06173654176294432,0.01726536240563495,-0.1448631907979861,0.05285815185000132
278,1.208182999995188,-0.0013376416570665556,0.0010904054061118675,0.006629083303938896,0.0071216981680727355,-0.0315460598974032,0.015410631641796436,0.037497513402733454,-0.18938302410197538,0.06196544844418093,0.016355633869084587,-0.1400965644081723,0.05119892974966761
279,1.2123184999945806,-0.0013391995735559962,0.0011062409468043692,0.00665797858461687,0.007287711453070683,-0.03237703185412405,0.01567830433469079,0.03759393344670645,-0.1900745761495427,0.06218738367908616,0.015437427193052888,-0.1352824856393908,0.049525068039884136
280,1.2167193000059342,-0.001355834957063495,0.0011087152301629635,0.006670591425450354,0.007454123126728852,-0.0332109694681727,0.01594695940849149,0.03768607197694939,-0.19074457475572973,0.06240227824378666,0.014510604069041557,-0.13042054569428307,0.04783664688904294
281,1.2218770000035877,-0.001355834957063495,0.0011087152301629635,0.006670591425450354,0.0076209106673901,-0.0340477684222342,0.016216567684295396,0.0377738602809116,-0.191392701837316,0.06261006305431693,0.013575030789208575,-0.12551034810834225,0.046133745147209165
282,1.2258513999986462,-0.0014002974987932528,0.0011291140990899583,0.006734600877758647,0.007788051325552371,-0.034887323162671936,0.01648709962286889,0.0378572298324703,-0.19201863981910314,0.06281066916898051,0.01263057854677148,-0.12055150994574325,0.04441644049845396
283,1.2309135999967111,-0.0013858547723546992,0.0011255805297316502,0.00673387344270747,0.007955522128432395,-0.03572952691205837,0.016758525324040787,0.037936112343110374,-0.1926220718013234,0.0630040277915237,0.011677123730011313,-0.11554366298032819,0.04268480961710015
284,1.2379839000059292,-0.0013960820972233447,0.0011271107901277434,0.006742736184862354,0.008123299884610809,-0.036574271682109326,0.01703081452620412,0.038010439813026674,-0.19320268172794855,0.06319007027512995,0.0107145482095737,-0.11048645486046775,0.04093892832767069
285,1.242819100007182,-0.0014210999037435825,0.0011354745138641169,0.006767116838481075,0.008291361188755921,-0.037421448287018634,0.017303936605930857,0.0380801445821001,-0.1937601545557524,0.06336872812724172,0.009742739618774001,-0.10537955025654919,0.03917887176832717
286,1.2473375999979908,-0.0014402384224951057,0.001143260984574468,0.00677701070634248,0.008459682426423275,-0.03827094635718978,0.017577860577703497,0.0381451593806993,-0.19429417642398114,0.06353993301521588,0.008761591626624087,-0.10022263198987186,0.03740471455758322
287,1.2520946000004187,-0.0014517557106183052,0.0011412697937081778,0.006793128134548142,0.00862823977892822,-0.03912265435336083,0.017852555093767482,0.03820541738026053,-0.19480443482448717,0.06370361677281765,0.007771004203309218,-0.09501540214176371,0.03561653096407519
288,1.256133899994893,-0.0014517557106183052,0.0011412697937081778,0.006793128134548142,0.008797009228288723,-0.03997645958111893,0.01812798844410809,0.03826085224359902,-0.19529061877218348,0.06385971140755695,0.006770883877854644,-0.0897575831417651,0.03381439507917062
289,1.263473700004397,-0.0014517557106183052,0.0011412697937081778,0.006793128134548142,0.008965966562235672,-0.04083224820580037,0.018404128556555373,0.03831139817490593,-0.19575241897567647,0.06400814910887001,0.005761143987732826,-0.08444891883376013,0.031998380992193265
290,1.2674361999961548,-0.0016219362979934338,0.0010561201992872026,0.006933129187778211,0.009135087379287917,-0.04168990526777273,0.018680942997020597,0.038356989969385934,-0.19618952800793674,0.06414886225714801,0.0047417049201736155,-0.07908917551897039,0.030168562968041497
291,1.2721130999998422,-0.0015147051250939468,0.0011306366947032424,0.006870010013889618,0.009304347093889264,-0.04254931469809487,0.018958398969867576,0.03839756306249142,-0.19660164047686912,0.06428178343361331,0.0037124943449514326,-0.07367814297476198,0.028325015626975734
292,1.2781463999999687,-0.0015129382686113147,0.0011180883860832241,0.0068719839945941075,0.00947372094160462,-0.04341035933455108,0.019236463318422204,0.03843305357871016,-0.19698845319564356,0.06440684543104332,0.00267344743843522,-0.06821563544825288,0.026467814126349593
293,1.281943299996783,-0.0015129382686113147,0.0011180883860832241,0.0068719839945941075,0.009643183984372613,-0.044272920938054704,0.019515102525623475,0.03846339837986398,-0.1973496653526515,0.064523981265341,0.0016245070986989118,-0.06270149262374532,0.024597034344058567
294,1.2874770000053104,-0.0015129382686113147,0.0011180883860832241,0.0068719839945941075,0.009812711115811982,-0.045136880209417175,0.019794282714818895,0.03848853511287729,-0.19768497868095403,0.06463312418794966,0.0005656241515022248,-0.05713558056304574,0.022712753063479325
295,1.292006200004835,-0.0016498035531041704,0.001012983141412595,0.006969734198455433,0.009982277066578999,-0.04600211680647764,0.020073969650707187,0.038508402256975084,-0.19799409762709033,0.06473420769910883,-0.0005032424530362615,-0.05151779261777404,0.020815048159672438
296,1.2959034999948926,-0.0016498035531041704,0.001012983141412595,0.006969734198455433,0.010151856409773171,-0.046868509361588935,0.020354128740431174,0.03852293917027159,-0.19827672951911637,0.06482716556194676,-0.0015821254532395028,-0.04584805031280262,0.0189039987866211
297,1.3000453999993624,-0.0016381856698341037,0.0009839056045690972,0.0070532298631794535,0.010321423566388542,-0.047735935499455345,0.020634725034823588,0.03853208613571135,-0.1985325847337462,0.06491193181740448,-0.0026710490982993097,-0.04012630420000569,0.01697968556527855
298,1.303985200007446,-0.0014919558024754003,0.0010346086573381867,0.00698074675803503,0.010490952810807955,-0.04860427185531734,0.020915723229808395,0.038535784406326185,-0.1987613768624695,0.06498844079998527,-0.003770028980471647,-0.034352534681539426,0.015042190772197095
299,1.3084418999933405,-0.0014919558024754003,0.0010346086573381867,0.00698074675803503,0.010660418276337704,-0.04947339409347858,0.02119708766796012,0.03853397624977197,-0.19896282287652234,0.06505662715432264,-0.004879071877168549,-0.028526752801914478,0.01309159852851215
300,1.3125183999945875,-0.00161287597992432,0.0009295139770258623,0.007032686528421741,0.010829793960779995,-0.05034317692617018,0.021478782340223365,0.03852660499211115,-0.19913664329059025,0.06511642585255963,-0.005998175603062854,-0.02264900100816355,0.01112799498905554
301,1.316892300004838,-0.0014770074659756264,0.0009960419868244304,0.007008535189742565,0.01099905373204065,-0.05121349413274731,0.02176077088779464,0.03851361506080781,-0.19928256232512645,0.06516777221252981,-0.007127328872309459,-0.016719353877448443,0.009151468531373172
302,1.3212929000001168,-0.0014604862852179944,0.0009816007135113316,0.00700735792899473,0.01116817133376949,-0.052084218579213144,0.02204301660416839,0.03849495202690348,-0.19940030806716885,0.06521060191673055,-0.00826651117097436,-0.010737918811492638,0.00716210994442347
303,1.325257300006342,-0.0014485158670858023,0.0009660446358861959,0.007011998535561439,0.011337120391030867,-0.052955222238064856,0.022325482437349123,0.038470562646342674,-0.19948961262954365,0.06524485103207756,-0.009415692639750296,-0.0047048366972680085,0.005160012616734281
304,1.3291088999976637,-0.0014290220328703061,0.000950262554312484,0.0070139406670001545,0.011505874416001911,-0.05382637620845657,0.02260813099223126,0.03844039490041901,-0.1995502123083461,0.06527045603042954,-0.010574833967025398,0.0013797174665938603,0.0031452727237975325
305,1.3333156000007875,-0.001419211404109704,0.0009445534704851291,0.007023523525791737,0.011674406813696038,-0.054697550736674,0.02289092453314844,0.03840439803531331,-0.19958184773859275,0.06528735380987043,-0.011743886292358901,0.007515533978152617,0.0011179894144828224
306,1.3375440999952843,-0.0014073572871418,0.0009408760932974592,0.00703764017321252,0.011842690887709352,-0.05556861523691576,0.023173824986593726,0.03836252260069665,-0.1995842640479406,0.06529548171673573,-0.012922791120405614,0.013702367875716668,-0.0009217350037468537
307,1.3417610000033164,-0.00138525560980639,0.0009325167436869511,0.007045611921223908,0.012010699845987667,-0.056439438312375856,0.023456793944112098,0.03831472048737268,-0.19955721100837442,0.06529477756836852,-0.014111480245318579,0.01993993841700903,-0.0029737948810318183
308,1.3460414000001035,-0.0013660474699778225,0.0009305135613381155,0.0070479785932066105,0.012178406806611834,-0.05730988777662199,0.023739792665366223,0.038260944963934646,-0.1995004431857652,0.06528517967659042,-0.015309875685647305,0.02622792859430073,-0.005038081042937011
309,1.3499031999963336,-0.0013539021457829171,0.0009285964283767693,0.007059885650881767,0.01234578480359913,-0.05817983067526422,0.024022782081376523,0.03820115071241407,-0.1994137200872056,0.06526662687187171,-0.016517889629736913,0.03256598468582845,-0.00711448061010741
310,1.353249899999355,-0.0013417339454712385,0.0009359008004278404,0.007077424733444053,0.012512806792718477,-0.05904913330790868,0.024305722797936354,0.03813529386289917,-0.19929680630603075,0.06523905852818368,-0.017735424391621672,0.03895371584377063,-0.009202876819964298
311,1.3570468999969307,-0.0013252242451896614,0.0009355567350215765,0.007088825132585323,0.012679445657317368,-0.05991766125039123,0.024588575099203067,0.03806333202710257,-0.1991494716644363,0.0652024145885158,-0.01896237237739452,0.04539069371901421,-0.011303148850646125
312,1.3620861999952467,-0.0013004895550770982,0.0009520742830854423,0.007115226501612034,0.012845674214158408,-0.06078527937728525,0.02487129895146552,0.03798522433085935,-0.1989714913536089,0.0651566355910399,-0.02019861606202258,0.051876452122902005,-0.013415171647394572
313,1.3661647999979325,-0.0013059316503697147,0.0009416618547496406,0.007122963825821337,0.013011465219263368,-0.06165185188467779,0.025153854007088555,0.03790093144553802,-0.1987626460712871,0.06510166269590253,-0.0214440279765673,0.05841048672610898,-0.015538815751583043
314,1.370818199997302,-0.0012831518156967323,0.0009548764402083911,0.0071575415935149125,0.013176791373762778,-0.06251724231320827,0.025436199608634788,0.037810415618347804,-0.19852272215667427,0.0650374377126261,-0.022698470705756514,0.0649922547947542,-0.017673947132581358
315,1.375825499999337,-0.0012831518156967323,0.0009548764402083911,0.0071575415935149125,0.013341625329749132,-0.0633813135713638,0.025718294793163843,0.03771364070152708,-0.19825151172262762,0.06496390312809823,-0.023961796895844576,0.071621174963814,-0.019820427022646667
316,1.3800225000013595,-0.0014027204201247025,0.0008697856963326995,0.007249627495423421,0.013505939696131865,-0.0642439279590256,0.02600009829670903,0.03761057218039923,-0.19794881278505297,0.06488100213512855,-0.02523384927268558,0.07829662704786122,-0.02197811175502671
317,1.3834335999999894,-0.0014027204201247025,0.0008697856963326995,0.007249627495423421,0.013669707044492262,-0.06510494719126037,0.026281568558931215,0.03750117720028351,-0.19761442938943685,0.06478867866155162,-0.02651446066993396,0.08501795188911558,-0.024146852605457653
318,1.3875054999953136,-0.0014027204201247025,0.0008697856963326995,0.007249627495423421,0.013832899914936463,-0.06596423242235097,0.026562663727949458,0.037385424592249854,-0.1972481717344515,0.06468687739985382,-0.027803454067276166,0.09178445124274974,-0.026326495637234555
319,1.391606999997748,-0.0014004772396582442,0.0008941529179929796,0.007347426002209734,0.013995490821944831,-0.06682164427006117,0.0268433416653482,0.03726328489770801,-0.1968498562925713,0.06457554383730169,-0.029100642638587068,0.09859538769935669,-0.02851688155002827
320,1.3957061999972211,-0.0013932634582986656,0.0009058208300342337,0.007403888194931162,0.014157452260215954,-0.06767704284012858,0.02712355995136049,0.0371347303918225,-0.19641930592764337,0.06445462428654879,-0.030405829809894352,0.10544998464444495,-0.030717845532618016
321,1.399898799994844,-0.0012541143571278331,0.0010263389423332918,0.007384387742400001,0.014318756710503618,-0.06853028775098066,0.02740327589022662,0.036999735105746306,-0.19595635000935804,0.06432406591669772,-0.03171880932702452,0.11234742625479,-0.03292921711970438
322,1.4083159000001615,-0.0012541143571278331,0.0010263389423332918,0.007384387742400001,0.014479376645445264,-0.06938123815866772,0.027682446515727425,0.03685827484766773,-0.19546082452456898,0.06418381678479324,-0.0330393653327945,0.11928685753143263,-0.03515082005296292
323,1.4125520999950822,-0.0012541143571278331,0.0010263389423332918,0.007384387742400001,0.014639284535380399,-0.0702297527820076,0.027961028596891414,0.03671032722266602,-0.1949325721854156,0.06403382586772191,-0.0343672724536033,0.1262673843690785,-0.03738247214649333
324,1.4167078000027686,-0.0012508314829858186,0.0010882407727825858,0.0074839043211352655,0.014798452854157484,-0.0710756899279361,0.02823897864387466,0.03655587165137216,-0.19437144253420321,0.06387404309449292,-0.03570229589526908,0.13328807366161688,-0.03962398515681465
325,1.420845000000554,-0.001245421846543795,0.001095734044116754,0.0075097228600199874,0.014956854084927857,-0.07191890751705764,0.02851625291401245,0.03639488938743294,-0.19377729204500085,0.06370441937887449,-0.037044191547948545,0.140347953443442,-0.04187516465755185
326,1.4242961999989348,-0.001245421846543795,0.001095734044116754,0.0075097228600199874,0.015114460725925252,-0.07275926310939067,0.028792807418041366,0.03622736353377733,-0.19314998422191973,0.06352490665235985,-0.03839270609996652,0.14744601306622393,-0.04413580991895415
327,1.427575800000341,-0.0013852747447763215,0.0010187943689899525,0.007618883103421464,0.015271245296229589,-0.07359661393030208,0.029068597926490424,0.03605327905768585,-0.19248938969403787,0.06333545789743683,-0.03974757716037563,0.15458120341074297,-0.04640571379238012
328,1.4311104999942472,-0.0012388405776524443,0.0011793028993824718,0.007640422270982087,0.01542718034151376,-0.07443081689662444,0.02934357997623972,0.0358726228046644,-0.19179538630694087,0.06313602718113435,-0.041108533390057905,0.16175243713336876,-0.04868466259987944
329,1.4355551000044215,-0.0012270952207052931,0.001200527666969362,0.007659828932917846,0.015582238439772201,-0.07526172864295072,0.02961770887724503,0.03568538351112543,-0.1910678592108518,0.0629265696888193,-0.042475294641172855,0.16895858894673313,-0.05097243602899555
330,1.4412826000043424,-0.0012199397683915912,0.001230193709446057,0.0077004818819895685,0.015736392207030114,-0.07608920554810089,0.02989093971942698,0.03549155181588032,-0.1903067009453269,0.06270704175821656,-0.04384757210474909,0.1761984959341138,-0.053268807032908004
331,1.4466446000005817,-0.0012199397683915912,0.001230193709446057,0.0077004818819895685,0.01588961430303219,-0.07691310376175504,0.030163227379722844,0.03529112027044796,-0.18951181152049654,0.06247740091362534,-0.045225068466209904,0.18347095789701695,-0.055573541736027895
332,1.4503286999970442,-0.001214801745893288,0.0013369867883612002,0.007830612284846508,0.01604187743690975,-0.07773327923124743,0.030434526529299313,0.03508408334818581,-0.188683098494834,0.0622376059003036,-0.046607478068616155,0.19077473773541712,-0.05788639934515407
333,1.454091799998423,-0.001197943420209475,0.001367023069713493,0.007859280254065452,0.016193154372825393,-0.07854958772851589,0.030704791640924354,0.034870437452250616,-0.18782047704943897,0.06198761671899327,-0.04799448708340359,0.1981085618600839,-0.0602071320662921
334,1.4583644999947865,-0.0012009251510139974,0.0014020565737656848,0.007890069525550282,0.01634341793559425,-0.07936188487720137,0.030973976996496188,0.03465018092239715,-0.18692387005882366,0.06172739466055818,-0.04938577368838564,0.20547112063639775,-0.06253548502723236
335,1.4638723999960348,-0.0011935824623582696,0.0014389309983073306,0.00791230960348088,0.01649264101628103,-0.0801700261798917,0.031242036694727214,0.03442331404062414,-0.18599320815819484,0.06145690234070628,-0.05078100825278708,0.21286106885903083,-0.0648711962059777
336,1.467751699994551,-0.0011810810130155835,0.0014712398756543813,0.00793993627133177,0.01664079657777201,-0.08097386704550398,0.031508924658980586,0.034189839035677835,-0.18502842980722675,0.061176103734767825,-0.05217985352906829,0.22027702625684262,-0.06721399636510571
337,1.471438799999305,-0.001180249406718736,0.0015117081372831532,0.007966806261188293,0.016787857660321277,-0.08177326281679981,0.03177459464525682,0.03394976008642449,-0.1840294813503235,0.060884964212501023,-0.053581964851294975,0.22771757802731468,-0.06956360899214431
338,1.4748525000031805,-0.0011825394201339088,0.0015462685694050057,0.00798153992557995,0.016933797387070505,-0.08256806879802789,0.032039000250328124,0.03370308332410403,-0.18299631707337183,0.06058345057289643,-0.05498699033980368,0.23518127539982686,-0.07191975024603404
339,1.479108200001065,-0.0011825394201339088,0.0015462685694050057,0.00798153992557995,0.017078588969541585,-0.08335814028268852,0.03230209492001771,0.03344981683347812,-0.1819288992569893,0.06027153107895181,-0.05639457111190882,0.24266663622705387,-0.07428212890974421
340,1.4837508000055095,-0.001282626643984193,0.0015372559679778903,0.008075864171635555,0.01722220571310147,-0.08414333258141438,0.03256383195762149,0.03318997065288679,-0.1808271982262749,0.059949175492389206,-0.05780434149839294,0.2501721456037406,-0.07665044634910416
341,1.4875469999969937,-0.0011636692820230523,0.001717754550289825,0.008067891904655988,0.017364621022398736,-0.08492350104996203,0.03282416453246934,0.032923556773228724,-0.17969119239707176,0.059616355108285196,-0.05921592926551821,0.25769625651209443,-0.0790243964779047
342,1.491801600001054,-0.0011296424654332745,0.0017453329586246923,0.008068126407335542,0.017505808406771288,-0.085698501117309,0.033083045688623164,0.032650589135880946,-0.17852086831875347,0.05927304278958584,-0.0606289558422943,0.2652373904930132,-0.08140366572931919
343,1.4958446999953594,-0.0011148698166335966,0.0017854858965576986,0.008081515254672307,0.01764574148562477,-0.08646818831385103,0.03334042835370861,0.032371083629574846,-0.17731622071354913,0.05891921300147837,-0.06204303655273414,0.2727939383423502,-0.08378793303368763
344,1.5001052000006894,-0.0011106663832026185,0.0018280819783548937,0.00809498394660667,0.017784393993781157,-0.08723241829969494,0.033596265347877526,0.03208505808624562,-0.1760772525124242,0.058554841845591454,-0.0634577808528267,0.28036426083140153,-0.08617686980270116
345,1.5040213000029323,-0.0011082133200313196,0.0018583770627696493,0.008101173153652162,0.017921739786797064,-0.08799104689304202,0.033850509392898014,0.03179253227587333,-0.17480397488753727,0.058179907093996036,-0.06487279257195369,0.2879466894507873,-0.08857013992001855
346,1.5084062999958403,-0.001074567758106815,0.001935851706520787,0.00810874685616506,0.01805775284625142,-0.08874393009865675,0.03410311312136906,0.03149352790033403,-0.17349640728129528,0.057794388222979054,-0.06628767015847528,0.2955395271768825,-0.09096739973834019
347,1.5125821999972686,-0.0010509815385396372,0.001984055115480686,0.00811372281244124,0.01819240728500228,-0.08949092413641578,0.03435402908605665,0.031188068586280506,-0.17215457743203236,0.05739826644656206,-0.0677020069292081,0.3031410492599402,-0.09336829808295877
348,1.5166609000007156,-0.00102653960423426,0.002049010782447937,0.00812252394030892,0.018325677352412466,-0.09023188546993187,0.03460320976934819,0.0308761798770724,-0.1707785213963381,0.056991524749737496,-0.0691153913225177,0.31074950403303503,-0.09577247626180058
349,1.5210879999940516,-0.0010222127487484064,0.0020888116891477934,0.008119701711556654,0.018457537439543804,-0.09096667083524723,0.03485060759282185,0.030557889223776582,-0.16936828356806508,0.05657414792139565,-0.07052740715474731,0.31836311374094495,-0.09817956808196504
350,1.5249466999957804,-0.001013317725559362,0.0021298526376292465,0.008113994117042516,0.01858796208431966,-0.09169513726959068,0.03509617492692751,0.030233225975258942,-0.16792391669404685,0.05614612258691573,-0.07193763387970291,0.32598007538807616,-0.10058919987276446
351,1.5291241999948395,-0.0010044645927844147,0.0021654550281351376,0.008106067799183957,0.018716925976655648,-0.09241714214019318,0.03533986410077588,0.02990222136738951,-0.16644548188655983,0.05570743724039439,-0.07334564685091492,0.33359856160453155,-0.10300099051525963
352,1.5333477999956813,-0.0010044645927844147,0.0021654550281351376,0.008106067799183957,0.018844403963558343,-0.09313254317315695,0.03558162741203223,0.029564908511382944,-0.16493304863256336,0.05525808227648533,-0.07475101758639678,0.34121672152941446,-0.10541455147828133
353,1.537445399997523,-0.00113228829657979,0.0021409787861414835,0.008141654174533027,0.018970371054191873,-0.09384119848237257,0.035821417136910796,0.029221322381297033,-0.16338669479975432,0.054798050021823606,-0.07615331403562096,0.34883268171045306,-0.10782948686092225
354,1.5417708000022683,-0.0009447414232296362,0.0022814991523877073,0.00804946727216075,0.019094802424912294,-0.09454296659847905,0.0360591855402662,0.028871499800712352,-0.16180650663947477,0.05432733476600874,-0.07755210084843388,0.3564445470190243,-0.1102453934414784
355,1.5476369999960298,-0.0009447414232296362,0.0022814991523877073,0.00804946727216075,0.019217673424269607,-0.09523770649786104,0.03629488488577841,0.028515479428616576,-0.16019257878651305,0.05384593279212107,-0.07894693964563197,0.3640504015796491,-0.11266186073281348
356,1.5517418999952497,-0.0010562775133904575,0.002221085344318416,0.008101876916995314,0.019338959577977332,-0.09592527763167875,0.03652846744622742,0.028153301744517373,-0.1585450142558406,0.053353842406746295,-0.08033738929092307,0.37164830971303053,-0.11507847104411423
357,1.5557975999981863,-0.000877427236167252,0.0023121210902597627,0.008026983814095308,0.019458636593849478,-0.09660553995492548,0.036759885513853834,0.02778500903280803,-0.15686392443632824,0.05285106396948354,-0.081723006163998,0.37923631689170123,-0.11749479954899922
358,1.5600043000013102,-0.0008257485687626065,0.0022990830856913867,0.007996760006615167,0.019576680366704964,-0.09727835395550802,0.03698909141080159,0.027410645366410222,-0.15514942908148646,0.052337599921912635,-0.08310334443443937,0.38681245070734765,-0.11991041435993795
359,1.5634362999990117,-0.0007705734247439791,0.0022823649883406904,0.008004542005272402,0.019693066983239464,-0.09794358068334515,0.037216037499639115,0.02703025658971859,-0.15340165629727637,0.05181345481599667,-0.08447795633619706,0.3943747218488779,-0.12232487660893203
360,1.5677064000046812,-0.0007500651059331888,0.0022745631929041573,0.007993431285991394,0.01980777272686465,-0.09860108177947946,0.03744067619395517,0.026643890300872122,-0.15162074252703817,0.051278635341896334,-0.08584639244236261,0.40192112509029915,-0.12473774053440535
361,1.5712128000013763,-0.0007097217439470699,0.0022295334013094515,0.007971229816194643,0.01992077408251484,-0.09925071950519743,0.03766295996902584,0.026251595833377595,-0.14980683253358643,0.05073315035517315,-0.08720820193997716,0.4094496402874759,-0.12714855357424526
362,1.5751145999965956,-0.0006723136258540793,0.00220897135572994,0.007964542293494208,0.020032047741421057,-0.09989235677115238,0.03788284137254865,0.025853424237110283,-0.14796007937852299,0.050177010903359055,-0.08856293290461094,0.41695823338284,-0.12955685646493112
363,1.5791541999933545,-0.0006310505578836735,0.0021783702528824925,0.007967446036457689,0.020141570605852407,-0.10052585716648559,0.03810027303544,0.025449428258717263,-0.14608064439881802,0.04961023025187042,-0.08991013257445492,0.42444485741712756,-0.13196218334668167
364,1.5836962000030326,-0.0005974960623598673,0.0021301020679469354,0.007959530652704888,0.02024931979382476,-0.10115108498794023,0.03831520768269188,0.025039662321448632,-0.14416869718071,0.049032823909245266,-0.09124934762366954,0.4319074535472226,-0.13436406187454802
365,1.5873273000033803,-0.000556839313483555,0.0020719258974594102,0.007946867611973989,0.0203552726437767,-0.10176790526896357,0.03852759814428391,0.024624182504442118,-0.14222441553097784,0.04844480965168276,-0.09258012443473929,0.43934395206919463,-0.13676201333537463
366,1.591553299993393,-0.0006643307332752384,0.0019400509045785902,0.008044116345322592,0.020459406719212838,-0.10237618380879232,0.038737397366146877,0.02420304652148658,-0.14024798544563785,0.04784620754686454,-0.09390200936958613,0.44675227344562274,-0.13915555277054564
367,1.5957596999942325,-0.0004865080128674551,0.0018982008277935467,0.007986953994886385,0.02056169981331457,-0.1029757872015163,0.03894455842117374,0.023776313699289894,-0.13823960107611974,0.04723703997703788,-0.09521454903919888,0.4541303293363071,-0.14154418910443012
368,1.60004370000388,-0.0004256273130648156,0.0018137263742283413,0.007975661192228305,0.020662129953518227,-0.10356658286511558,0.039149034520274156,0.023344044955276585,-0.1361994646929768,0.04661733166134157,-0.09651729057153986,0.4614760236314778,-0.143927425278435
369,1.6033931999991182,-0.00035560608137432043,0.0016516249958305855,0.008025909399822903,0.0207606754060607,-0.10414843907046577,0.03935077902346841,0.02290630277494046,-0.1341277866471847,0.0459871096773559,-0.0978097818774954,0.46878725348662054,-0.14630475839057014
370,1.6068977999966592,-0.0003231725537499113,0.00157498950312179,0.008055543391830254,0.020857314680492598,-0.10472122497030639,0.03954974545101683,0.022463151188777557,-0.1320247853290841,0.04534640348185877,-0.09909157191464106,0.47606191035804973,-0.14867567984042598
371,1.612547299999278,-0.00028755054192561405,0.001477218455871615,0.008101138913232617,0.020952026534158945,-0.10528481062816777,0.039745887494580565,0.022014655748824653,-0.12989068712502289,0.04469524493077026,-0.10036221094859846,0.48329788103836924,-0.15103967547945918
372,1.616524600001867,-0.00024349123809975346,0.0013390636296528459,0.00810263779071398,0.021044789976647632,-0.1058390670472512,0.03993915902840973,0.021560883504828196,-0.12772572637175442,0.044033668298269026,-0.10162125081176532,0.49049304869097216,-0.15339622576647916
373,1.6207330000033835,-0.000199036563816952,0.0012376914468234966,0.008131640797029351,0.021135584274205706,-0.1063838661992575,0.040129514120555036,0.021101902980068594,-0.1255301453086485,0.0433617102950642,-0.10286824515920688,0.49764529388274725,-0.1557448059282235
374,1.62636900000507,-0.00015494218274325134,0.0011398695239278598,0.00815583528714415,0.021224388954123583,-0.10691908105315921,0.040316907044098974,0.02063778414686442,-0.12330419402777103,0.04267941008580735,-0.10410274972150153,0.5047524956141697,-0.15808488612490704
375,1.6298834000044735,-0.00012590220581688527,0.0010324731380054511,0.008176183522278483,0.021311183809087347,-0.10744458560391103,0.0405012922884026,0.02016859840178085,-0.1210481304218894,0.041986809305629355,-0.10532432255434025,0.5118125323459675,-0.160415931620626
376,1.6355290000064997,-9.256950941218217e-05,0.0009305135602052479,0.008203123964656703,0.021395948901499196,-0.10796025490109373,0.04068262457036408,0.019694418540566503,-0.11876222013046037,0.04128395207578795,-0.10653252428468486,0.5188232830215735,-0.1627374029584958
377,1.6405366999970283,-6.293621658557305e-05,0.0008409347555176437,0.00822762066704074,0.021478664567765954,-0.10846596507748649,0.040860858845684814,0.019215318732842376,-0.1164467364836561,0.04057088501841194,-0.1077269183532966,0.5257826280845876,-0.16504875614039743
378,1.6457591999933356,-2.0493164234757692e-05,0.0007140359191217054,0.008245177400073111,0.02155931142255572,-0.10896159337756291,0.04103595032013924,0.018731374496566314,-0.1141019604444851,0.03984765727032926,-0.10890707125345306,0.5326884504904892,-0.16734944281120434
379,1.649821900005918,4.4225714261748885e-05,0.000620750158003816,0.008273423575896626,0.02163787036302269,-0.10944701818590624,0.04120785446084452,0.01824266267229612,-0.11172818054906385,0.03911432049596668,-0.11007255276567832,0.5395386367118589,-0.16963891044735863
380,1.654205600003479,4.4225714261748885e-05,0.000620750158003816,0.008273423575896626,0.02171432257300021,-0.10992211905553877,0.041376527007526,0.017749261397274115,-0.10932569284509468,0.03837092889930946,-0.11122293618831756,0.5463310777363866,-0.1719166025496617
381,1.657460300004459,-2.3334640334757038e-05,0.00041601055562976016,0.008358070028665064,0.02178864952716218,-0.1103867767361602,0.041541923983774806,0.017251250079355546,-0.10689480082860545,0.03761753923491022,-0.11235779856379463,0.5530636700569589,-0.17418195884014231
382,1.6623405999998797,0.00014601915762859534,0.000291978930102801,0.008358435170749952,0.02186083299515276,-0.11084087320229033,0.041704001708293706,0.016748709370803003,-0.10443581537900627,0.03685421081793649,-0.11347672090039641,0.559734316653142,-0.17643441546286295
383,1.6676660999946762,0.00018586741693319537,0.0001813125535970266,0.008369785635161662,0.02193085504568449,-0.11128429168131107,0.041862716806127416,0.01624172114196833,-0.10194905469251775,0.03608100553324742,-0.11457928838943574,0.5663409279633896,-0.17867340518852298
384,1.6711617999972077,0.00021458037179195315,7.013560905771467e-05,0.008405504720464339,0.021998698050604604,-0.11171691668140318,0.042018026219873696,0.01573036845488312,-0.09943484421402402,0.03529798784349062,-0.11566509061765133,0.5728814228473254,-0.18089835762271406
385,1.677573199995095,0.00021458037179195315,7.013560905771467e-05,0.008405504720464339,0.022064344688929486,-0.11213863401937232,0.04216988722087132,0.015214735536778453,-0.09689351656740453,0.034505224796210966,-0.11673372177471096,0.5793537295374718,-0.1831086994176822
386,1.681797600002028,0.0001528029072992698,-0.00012096492670135789,0.008540989631530107,0.022127777950847128,-0.11254933084835952,0.042318257420361244,0.014694907753554065,-0.09432541148439723,0.03370278602996394,-0.11778478085569115,0.5857557865798149,-0.18530385448744854
387,1.685524800006533,0.000311858450966661,-0.00025965671959319887,0.008548966439935047,0.02218898114168744,-0.11294889568543079,0.042463094780617355,0.014170971583216566,-0.091730875732045,0.03289074377942677,-0.11881787185841408,0.5920855437626151,-0.18748324422613957
388,1.6892296000005445,0.00034647590229655285,-0.000381218647633881,0.008570537486951222,0.022247937885860453,-0.11333721843904081,0.04260435762604334,0.013643014589305932,-0.0891102630387766,0.03206917287950103,-0.1198326039755298,0.5983409630329,-0.18964628772937564
389,1.693344100000104,0.00035905062259603666,-0.0004891639758466508,0.008598766294961866,0.022304632130762257,-0.1137141904363657,0.042742004654232,0.013111125394328776,-0.08646393401917256,0.031238150768401238,-0.12082859178123817,0.6045200194000928,-0.1917924020185651
390,1.6975273999996716,0.0003810153478904996,-0.0005857470327922157,0.008638200336151697,0.022359048150648448,-0.11407970445049892,0.04287599494698369,0.012575393653216409,-0.08379225609746552,0.030397757489724564,-0.12180545541255311,0.6106207018262566,-0.1939210022679497
391,1.7017248000047402,0.0003912324041029366,-0.0007113611326516498,0.008688178474544613,0.02241117055047487,-0.11443365472750529,0.04300628798128021,0.012035910026825277,-0.08109560342982378,0.029548075693497336,-0.12276282074501797,0.6166410141024498,-0.19603150203424657
392,1.7056620999937877,0.0004248273664713766,-0.00092260021369055,0.008783874657709122,0.022460984269705487,-0.11477593701332808,0.0431328436402107,0.011492766155496765,-0.07837435682546523,0.0286891906361949,-0.12370031956278886,0.6225789757107153,-0.1981233134887292
393,1.7093967999971935,0.00046697319353255427,-0.0010324108009753092,0.008834200022893398,0.022508474586087242,-0.11510644858054452,0.04325562222384606,0.01094605463269271,-0.0756289036666478,0.02782119017973167,-0.12461758972300972,0.6284326226712439,-0.2001958476515895
394,1.7128041999967536,0.0004818209719316301,-0.001133637693834703,0.008879030905822531,0.022553627119391732,-0.11542508825496413,0.04337458446005828,0.010395868978722418,-0.07285963782758165,0.02694416478941933,-0.12551427531441087,0.6342000083742759,-0.20224851462842328
395,1.7162781999941217,0.00048484510036367204,-0.0012806842311166378,0.008936161650443815,0.022596427835123483,-0.11573175644206471,0.043489691515281446,0.00984230361457633,-0.07006695959230716,0.02605820753089156,-0.12639002681006925,0.6398792043963324,-0.20428072384868093
396,1.719587500003399,0.0005300664559139442,-0.0013991790333089307,0.008978393237681983,0.02263686304819451,-0.11602635515326071,0.043600905005211264,0.00928545383588088,-0.0672512755715821,0.025163414065994292,-0.12724450121427655,0.6454683013003868,-0.20629188430592404
397,1.7248059999983525,0.0005691823341787781,-0.001642450420699586,0.009099736871575963,0.022674919426564927,-0.11630878803199926,0.04370818700543974,0.008725415786988582,-0.06441299861882004,0.024259882647641225,-0.12807736220346794,0.6509654094196115,-0.20828140479972843
398,1.7294785999984017,0.0005832167376378003,-0.001752948961773122,0.009162797371923194,0.022710583994849244,-0.11657896037967885,0.043811500062021815,0.00816228643521663,-0.061552547745120575,0.023347714113634805,-0.12888828026117227,0.6563686596243524,-0.21024869417907396
399,1.733194700005697,0.0005985611799690197,-0.0018861400837772964,0.00922590893442378,0.0227438441378881,-0.11683677918138483,0.0439108072019707,0.00759616354524671,-0.058670348033431,0.022427011879453635,-0.12967693280695128,0.6616762040720066,-0.21219316158706208
400,1.7375850999960676,0.0006008605160306324,-0.0019898453109233926,0.009283023889661351,0.022774687604285013,-0.1170821531314366,0.04400607194367905,0.007027145653698092,-0.055766830551877165,0.021497881930007918,-0.13044300431930209,0.6668862169395049,-0.21411421670680103
401,1.740954499997315,0.0005999685684285436,-0.0022158778401969934,0.009432579703555134,0.022803102509907695,-0.11731499265874122,0.0440972583072628,0.006455332043885413,-0.052842432266301136,0.020560432810365167,-0.13118618645250635,0.6719968951381284,-0.2160112700082984
402,1.745630399993388,0.0006088704423522789,-0.002338451536721684,0.00950853362030732,0.022829077341353442,-0.1175352099519479,0.044184330824824654,0.005880822720771949,-0.049897595952041594,0.019614775615449075,-0.1319061781474155,0.6770064590104055,-0.21788373299620217
403,1.7498921999940649,0.0006248338416168595,-0.0024682982675664675,0.009551699884814092,0.02285260095937809,-0.11774271898439898,0.044267254550634315,0.005303718386128504,-0.04693277010499185,0.018661023978714966,-0.13260268573616793,0.6819131530088609,-0.21973101845823179
404,1.7542567000054987,0.0006482783836115689,-0.002591815311278984,0.009595315502275888,0.022873662602288045,-0.11793743553887158,0.04434599507122253,0.004724120413907412,-0.0439484088519689,0.01769929405980587,-0.13327542304083984,0.686715246356412,-0.22155254071414182
405,1.7583496000006562,0.0006718076177478925,-0.0027645605251286113,0.009633630598320807,0.022892251889294748,-0.11811927723210415,0.04442051851538612,0.004142130825840468,-0.04094497186042564,0.0167297045311939,-0.1339241114660395,0.691411033688228,-0.22334771586506194
406,1.7618395000026794,0.000692949563814359,-0.0029041665670124944,0.009665065229827755,0.02290835882383098,-0.11828816353910193,0.04449079156410112,0.003557852267268978,-0.03792292424753684,0.015752376563812176,-0.13454848008546025,0.6959988356748937,-0.22511596204305695
407,1.7660634000058053,0.0007139173985336675,-0.0030393776909267917,0.009713217204906262,0.022921973796828317,-0.11844401581721552,0.04455678146034098,0.002971387983213482,-0.03488273648868864,0.01476743381168289,-0.1351482657224146,0.7004769996267379,-0.22685669966075164
408,1.7710741000046255,0.000746375315516114,-0.0031758465859592494,0.009755288663122804,0.022933087589955183,-0.11858675732998684,0.04461845601879745,0.002382841794690077,-0.031824884325399656,0.013775002395547666,-0.13572321302437834,0.7048439000792065,-0.22856935166086473
409,1.775005100003909,0.0007405161097970175,-0.003332329846967411,0.009789196531620156,0.0229416913788149,-0.1187163132707569,0.04467578363550142,0.0017923180752796386,-0.028749848672700508,0.012775210885507055,-0.1362730745315801,0.709097939359183,-0.23025334376549766
410,1.7791678000066895,0.0007672472213747205,-0.003503322263099731,0.009845237131090333,0.022947776736103164,-0.11883261078602904,0.044728733297341096,0.0011999217279555893,-0.025658115525997248,0.011768190282676427,-0.13679761073967703,0.713237548132182,-0.23190810472502635
411,1.7831524000066563,0.0007873410244524232,-0.0036337560145701968,0.009882552727965711,0.022951335634724405,-0.11893557899858227,0.04477727459147506,0.0006057581621752464,-0.022550175867442738,0.010754073999866148,-0.137296590156564,0.7172611859303647,-0.23353306656644465
412,1.7873231999983543,0.000828207490029785,-0.003758025160830594,0.009926442111267218,0.022952360450866318,-0.11902514903032946,0.044821377714637574,9.933271239143833e-06,-0.019426525571838812,0.009732997841294303,-0.13776978935337003,0.7211673416613413,-0.23512766484101102
413,1.7918202000000747,0.0008603727045717993,-0.003942412051829779,0.00995926528399881,0.02295084396703172,-0.11910125402491462,0.04486101348233358,-0.0005874465900778942,-0.01628766531209067,0.008705099981340707,-0.13821699300969986,0.724954534097749,-0.23669133887105073
414,1.7957411999959731,0.0008927891177601572,-0.004100335236281001,0.00998496450218586,0.02294677937502691,-0.11916382917004298,0.04489615333792088,-0.0011862746276207633,-0.013134100464233611,0.007670520942351417,-0.1386379939531851,0.7286213123476131,-0.23822353199576812
415,1.8000451999978395,0.0009534923797998732,-0.004250644043579133,0.010034846168251121,0.022940160278905778,-0.11921281171953774,0.04492676936157684,-0.0017864436296706036,-0.009966341012051048,0.006629403571503415,-0.13903259319341416,0.7321662563055197,-0.23972369181592457
416,1.8040349000075369,0.0009767860740699406,-0.004403534501993607,0.010074517533623569,0.02293098069786897,-0.11924814101511748,0.044952834279147424,-0.0023878459884818714,-0.006784901451301281,0.005581893016739687,-0.13940059995031637,0.7355879770846422,-0.24119127043723929
417,1.8083164999989092,0.0009767860740699406,-0.004403534501993607,0.010074517533623569,0.022919235069117184,-0.1192697585078885,0.044974321470876114,-0.0029903737215385565,-0.0035903006935692414,0.004528136701785276,-0.13974183167708012,0.7388851174296839,-0.2426257247123729
418,1.812515400000848,0.0009078865044406272,-0.004661729018517221,0.010178862424369224,0.02290491825065767,-0.1192776077795462,0.04499120498001044,-0.003593918492528739,-0.00038306196975808587,0.003468284300255353,-0.1400561140776901,0.7420563521108229,-0.24402651648135576
419,1.8166482999949949,0.0011356794422204071,-0.004914863737053602,0.010179640525319708,0.02288802552406311,-0.11927163456327888,0.04500345952128392,-0.004198371632037247,0.002836287266765657,0.002402487708866715,-0.14034328111917263,0.7451003882987631,-0.24539311281032503
420,1.8228399000072384,0.001170610597645833,-0.005090912916956936,0.010172879776885305,0.022868552597181957,-0.11925178676436798,0.04501106048927123,-0.004803624157956723,0.006067215437360989,0.0013309010197645453,-0.14060317503864303,0.7480159659210095,-0.24672498622843506
421,1.8268447000009476,0.001197630530801306,-0.0052621217342010435,0.01017780860622895,0.022846495606799265,-0.11921801448047858,0.04501398396661429,-0.0054095667956179355,0.009309186935624192,0.0002536804919766427,-0.1408356463452544,0.7508018579995013,-0.24802161496281044
422,1.830999700003304,0.001229277039860734,-0.005438463744378859,0.01019494860001227,0.02282185112124695,-0.11917027002163427,0.045012206732116956,-0.006016089997640741,0.012561662225213426,-0.0008290154779923477,-0.14104055381715008,0.7534568709697541,-0.24928248317141483
423,1.8352294000069376,0.001229277039860734,-0.005438463744378859,0.01019494860001227,0.022794616142962448,-0.11910850792987034,0.045005706268706196,-0.006623083963507561,0.015824097937977375,-0.0019170263864137914,-0.14121776449352724,0.7559798449816816,-0.2505070811737086
424,1.8387918999942483,0.001229277039860734,-0.005438463744378859,0.01019494860001227,0.02276478811099473,-0.11903268499855858,0.044994460771257586,-0.007230438658861803,0.01909594697238025,-0.0030101896534217632,-0.14136715366192232,0.7583696541822829,-0.2516949056789734
425,1.842578499999945,0.0011151888127126424,-0.0057263968765802736,0.010296685237890612,0.02273236490345648,-0.11894276029139803,0.04497844915428331,-0.007838043834534123,0.02237665859221658,-0.004108340654920021,-0.14148860484083234,0.7606252069803946,-0.2528454600121827
426,1.846072300002561,0.0014107855666762458,-0.006318346355010768,0.010380279781908473,0.022697344839921328,-0.1188386951610654,0.04495765105948078,-0.008445789045299912,0.025665678525610476,-0.005211312755295376,-0.14158200975778973,0.7627454462937213,-0.25395825433730373
427,1.850219500003732,0.001472467459902834,-0.006564459073272518,0.010391648564661174,0.02265972668376508,-0.11872045326751955,0.044932046863140014,-0.009053563668371876,0.02896244906429498,-0.006318937340923288,-0.141647268323012,0.7647293497783726,-0.25503280587791316
428,1.854373800000758,0.001472467459902834,-0.006564459073272518,0.010391648564661174,0.022619509644449875,-0.11858800059595336,0.0449016176834078,-0.009661256921632031,0.03226640916316813,-0.007431043854451233,-0.14168428859875024,0.7665759300411475,-0.2560686391350148
429,1.858244400005788,0.0013874289426259664,-0.006877390902146982,0.010514273790607789,0.022576693379750077,-0.11844130547438725,0.044866345387406734,-0.010268757881607837,0.03557699454012353,-0.008547459829845117,-0.14169298676446346,0.7682842348348218,-0.25706528610194973
430,1.8633235000015704,0.0016003198565055544,-0.0072091645207635665,0.010547928784176635,0.022531277997918847,-0.1182803385908981,0.04482621259820735,-0.01087595550119762,0.03889363777615409,-0.009668010928183765,-0.14167328707794852,0.769853347236704,-0.2580222864762922
431,1.8668127999990247,0.0017337651241931794,-0.007487382423403962,0.010591749282772777,0.022483264059794138,-0.1181050730104778,0.044781202701651944,-0.01148273862715081,0.04221576841572824,-0.010792520974186278,-0.14162512183255752,0.7712823858107427,-0.25893918786862846
